time,rotate_x,rotate_y,rotate_z,angularVelocity_x,angularVelocity_y,angularVelocity_z,velocity_x,velocity_y,velocity_z,acceleration_x,acceleration_y,acceleration_z,position_x,position_y,position_z
2023-11-06 21:23:45.415000064,-0.0724598,0.01002875,-0.03627882,-0.009009517,-0.01079205,0.003251055,1.909502e-05,-0.0003933975,0.0008962629,1.909502e-05,-0.0003933975,0.0008962629,-0.02251801,1.733946,-0.020877
2023-11-06 21:23:45.424000000,-0.07194814,0.009653717,-0.03559195,-0.004819409,0.004506404,-0.01084417,-0.003223078,0.0005336439,0.0007307972,-0.0032039829799999,0.0001402463999999,0.0016270601,-0.02292535,0.008273363,-0.02069367
2023-11-06 21:23:45.438999808,-0.07217961,0.009542137,-0.0354188,0.001620272,0.004805025,-0.01409634,-0.003011977,0.001145079,0.00083462,-0.00621595998,0.0012853254,0.0024616801,-0.02292336,0.008301607,-0.02064993
2023-11-06 21:23:45.459000064,-0.07248703,0.009630501,-0.03529287,0.008508964,0.0005477555,-0.01442018,-0.002851466,0.001416808,0.0005755892,-0.00906742598,0.0027021334,0.0030372693,-0.02294599,0.008328254,-0.02064552
2023-11-06 21:23:45.477999872,-0.07237402,0.00975886,-0.03504582,0.00349822,-0.003953174,-0.01678521,-0.002537996,0.001396266,0.0001136926,-0.0116054219799999,0.0040983994,0.0031509619,-0.02296507,0.008333511,-0.02066183
2023-11-06 21:23:45.497999872,-0.07220764,0.009780586,-0.03498213,-0.001741959,-0.003300917,-0.01455701,-0.001724058,0.001095043,-0.0002946744,-0.01332947998,0.0051934424,0.0028562875,-0.02295477,0.008312302,-0.02068907
2023-11-06 21:23:45.513999872,-0.07214437,0.01000977,-0.0351284,-0.003325695,-0.007933172,-0.005196135,-0.001029606,0.0009574536,-0.0007947957,-0.01435908598,0.0061508959999999,0.0020614918,-0.02293908,0.008318977,-0.02071335
2023-11-06 21:23:45.532000000,-0.07221432,0.01016298,-0.03504232,-0.0006354048,-0.01155389,-0.005443381,2.193349e-05,0.001579888,-0.001226529,-0.01433715249,0.0077307839999999,0.0008349628,-0.02288944,0.008366992,-0.02074132
2023-11-06 21:23:45.548000000,-0.07246944,0.01034918,-0.03511822,0.007522844,-0.01521976,-0.0004048284,0.00124195,0.002421172,-0.00156353,-0.01309520249,0.010151956,-0.0007285671999999,-0.02281484,0.008441712,-0.02076354
2023-11-06 21:23:45.564999936,-0.07277707,0.01092571,-0.03547265,0.01049841,-0.01849697,0.01112633,0.002482645,0.002889404,-0.002027012,-0.0106125574899999,0.01304136,-0.0027555792,-0.02272006,0.008517145,-0.02075861
2023-11-06 21:23:45.579000064,-0.07269405,0.01105329,-0.03526725,0.0127708,-0.02539548,0.01280939,0.003511362,0.00291084,-0.002559455,-0.0071011954899999,0.0159522,-0.0053150342,-0.02262283,0.00853987,-0.02079078
2023-11-06 21:23:45.596000000,-0.07298379,0.01114202,-0.03543388,0.01230184,-0.02860641,0.01372425,0.004614324,0.002690018,-0.002854148,-0.0024868714899999,0.018642218,-0.0081691822,-0.02251543,0.008579555,-0.02083813
2023-11-06 21:23:45.611000064,-0.07292573,0.01159701,-0.03567365,0.01397409,-0.03228507,0.01666315,0.005454767,0.002776454,-0.00307023,0.00296789551,0.021418672,-0.0112394122,-0.02240754,0.008636493,-0.02086311
2023-11-06 21:23:45.625999872,-0.07322244,0.01200059,-0.03584239,0.01767417,-0.03754716,0.02379324,0.006394389,0.0030572,-0.003144863,0.00936228451,0.024475872,-0.0143842752,-0.02229329,0.008663926,-0.02090151
2023-11-06 21:23:45.640999936,-0.07340617,0.01233271,-0.03624016,0.01856815,-0.04042752,0.03431379,0.007288673,0.002891424,-0.003426076,0.01665095751,0.027367296,-0.0178103511999999,-0.02216821,0.008689277,-0.02095462
2023-11-06 21:23:45.656000000,-0.07325368,0.01271671,-0.03642796,0.008880444,-0.04135996,0.03868868,0.007911435,0.002638529,-0.003798154,0.02456239251,0.030005825,-0.0216085052,-0.0220367,0.008724418,-0.02099809
2023-11-06 21:23:45.671000064,-0.07330213,0.01303589,-0.03648164,0.006485167,-0.04165925,0.03123134,0.008180241,0.002252841,-0.004163729,0.03274263351,0.032258666,-0.0257722342,-0.02191398,0.008747109,-0.02105008
2023-11-06 21:23:45.684999936,-0.07351608,0.01332685,-0.03648392,0.009454541,-0.04305269,0.0289674,0.007899134,0.002183602,-0.004567461,0.04064176751,0.034442268,-0.0303396952,-0.02180959,0.008773033,-0.02111548
2023-11-06 21:23:45.700000000,-0.07369825,0.01341701,-0.03638032,0.01087387,-0.03968193,0.0227292,0.007704555,0.002355199,-0.004873771,0.04834632251,0.036797467,-0.0352134662,-0.02170275,0.008797699,-0.02120137
2023-11-06 21:23:45.714999808,-0.07388623,0.01381573,-0.0369488,0.01204759,-0.03886488,0.02382804,0.00725749,0.002145014,-0.005400978,0.05560381251,0.038942481,-0.0406144442,-0.02160645,0.00885046,-0.0212827
2023-11-06 21:23:45.728000000,-0.07391668,0.01400274,-0.03685996,0.0128192,-0.03483359,0.02723182,0.00676761,0.001992336,-0.005739985,0.06237142251,0.040934817,-0.0463544292,-0.02152669,0.008868778,-0.02136111
2023-11-06 21:23:45.742000128,-0.0740023,0.01424828,-0.03708942,0.01557273,-0.03096735,0.02737042,0.006085051,0.001970161,-0.006036247,0.06845647351,0.0429049779999999,-0.0523906762,-0.02146065,0.008910723,-0.02144004
2023-11-06 21:23:45.756000000,-0.07420564,0.01427141,-0.03720636,0.01816207,-0.02812921,0.02747729,0.005257428,0.001792741,-0.006138998,0.07371390151,0.044697719,-0.0585296742,-0.02140087,0.008926854,-0.02152947
2023-11-06 21:23:45.768999936,-0.07428028,0.01438305,-0.03744258,0.01841046,-0.01951188,0.02686618,0.004761152,0.001713153,-0.006054105,0.07847505351,0.046410872,-0.0645837792,-0.02133592,0.008949148,-0.02160703
2023-11-06 21:23:45.783000064,-0.0745431,0.01433918,-0.03759649,0.0197822,-0.01617366,0.02061191,0.00386062,0.001244221,-0.006099666,0.08233567351,0.0476550929999999,-0.0706834452,-0.02130052,0.008951853,-0.02169957
2023-11-06 21:23:45.796999936,-0.07452342,0.01449493,-0.03772186,0.0163753,-0.01015109,0.01887104,0.002945482,0.0008762173,-0.006065495,0.08528115551,0.0485313103,-0.0767489402,-0.02128454,0.008960162,-0.02177375
2023-11-06 21:23:45.812000000,-0.07457607,0.01439551,-0.03776923,0.01517232,-0.004667832,0.02133581,0.002199237,0.0004704078,-0.005966812,0.08748039251,0.0490017181,-0.0827157522,-0.02127567,0.008954962,-0.02185896
2023-11-06 21:23:45.825999872,-0.07466801,0.01441005,-0.03779182,0.01111692,-0.001498544,0.01412361,0.001131796,0.0008627673,-0.005766245,0.08861218851,0.0498644854,-0.0884819972,-0.02129297,0.008965749,-0.02192296
2023-11-06 21:23:45.839000064,-0.07494803,0.01429823,-0.03781077,0.01545167,-0.001051676,0.01296779,0.0001055864,0.00112758,-0.005323411,0.08871777491,0.0509920654,-0.0938054082,-0.02132244,0.008976402,-0.02198358
2023-11-06 21:23:45.852999936,-0.07508752,0.01429492,-0.03759069,0.01990668,0.00193264,0.003373466,-0.0008562203,0.001878515,-0.004839896,0.08786155461,0.0528705804,-0.0986453042,-0.02136311,0.009009209,-0.02203368
2023-11-06 21:23:45.868000000,-0.07520957,0.0139918,-0.03749257,0.02035835,0.006572821,-0.004940883,-0.001635788,0.002338081,-0.004211214,0.08622576661,0.0552086614,-0.1028565182,-0.02140847,0.009048538,-0.02209329
2023-11-06 21:23:45.881999872,-0.07524744,0.01397604,-0.03768723,0.02321987,0.01026509,-0.001619117,-0.002695128,0.001764889,-0.003841216,0.08353063861,0.0569735503999999,-0.1066977342,-0.02146817,0.009067996,-0.02215113
2023-11-06 21:23:45.897000192,-0.07540362,0.01378903,-0.03776761,0.01967418,0.01518574,-0.002350189,-0.003496487,0.001499835,-0.003208117,0.0800341516099999,0.0584733853999999,-0.1099058512,-0.02152507,0.009085149,-0.02221846
2023-11-06 21:23:45.912000000,-0.07539092,0.01363319,-0.03764497,0.01655873,0.01701088,-0.007521577,-0.004197211,0.001431594,-0.002549371,0.0758369406099999,0.0599049793999999,-0.1124552222,-0.02159427,0.009093741,-0.02226527
2023-11-06 21:23:45.926000128,-0.07554418,0.0134404,-0.03750096,0.01402252,0.02182347,-0.009369158,-0.004787985,0.001008108,-0.001608396,0.0710489556099999,0.0609130873999999,-0.1140636182,-0.02167683,0.009087974,-0.02227586
2023-11-06 21:23:45.941999872,-0.07539131,0.01324296,-0.03751914,0.007278088,0.02735481,-0.0121305,-0.005430461,0.0003635185,-0.0008442794,0.06561849461,0.0612766058999999,-0.1149078976,-0.02176978,0.009078238,-0.0222809
2023-11-06 21:23:45.956999936,-0.07517662,0.01291698,-0.03729363,-0.00573895,0.02741794,-0.01502588,-0.006076085,-0.0003081929,-0.0002360914,0.0595424096099999,0.060968413,-0.115143989,-0.02188684,0.009043445,-0.02226307
2023-11-06 21:23:45.970000128,-0.07495413,0.01283857,-0.03722864,-0.01325945,0.02753508,-0.01484006,-0.006370977,-0.001293779,0.000341885,0.0531714326099999,0.059674634,-0.114802104,-0.02199809,0.008998008,-0.02222009
2023-11-06 21:23:45.983000064,-0.07482779,0.01258579,-0.03722781,-0.01734716,0.02941332,-0.0178717,-0.006656853,-0.001811474,0.0009041668,0.0465145796099999,0.05786316,-0.1138979372,-0.02210648,0.008959401,-0.02219421
2023-11-06 21:23:45.996000000,-0.07470473,0.01227021,-0.03708425,-0.01901379,0.0330532,-0.02086891,-0.006950084,-0.001763947,0.001497351,0.0395644956099999,0.0560992129999999,-0.1124005862,-0.02221234,0.008925294,-0.02217701
2023-11-06 21:23:46.008999936,-0.07464346,0.01201966,-0.03700294,-0.01350355,0.03455091,-0.02517911,-0.00709313,-0.001869673,0.002103994,0.03247136561,0.0542295399999999,-0.1102965922,-0.02231743,0.008889704,-0.02214734
2023-11-06 21:23:46.024000000,-0.07440607,0.01171911,-0.03688849,-0.01219228,0.03517142,-0.0198085,-0.007227864,-0.002011692,0.002669052,0.0252435016099999,0.0522178479999999,-0.1076275402,-0.02240437,0.008852861,-0.02210644
2023-11-06 21:23:46.033999872,-0.07439141,0.01148227,-0.0368879,-0.01094781,0.03600188,-0.01872697,-0.007169465,-0.002369927,0.003046093,0.0180740366099999,0.0498479209999999,-0.1045814472,-0.02248613,0.008812545,-0.02206173
2023-11-06 21:23:46.048000000,-0.07420646,0.01118565,-0.03675541,-0.01361572,0.03964693,-0.01848292,-0.006887536,-0.002841596,0.003589382,0.0111865006099999,0.0470063249999999,-0.1009920652,-0.0225619,0.008754596,-0.0220074
2023-11-06 21:23:46.062000128,-0.07387505,0.01093897,-0.03674167,-0.02023383,0.03853722,-0.01841794,-0.006728078,-0.003336354,0.003942085,0.0044584226099999,0.0436699709999999,-0.0970499802,-0.02265231,0.008693335,-0.02195541
2023-11-06 21:23:46.076000000,-0.07358684,0.01074544,-0.03674944,-0.02787509,0.03746901,-0.01621601,-0.006269327,-0.003911167,0.004217785,-0.00181090439,0.0397588039999999,-0.0928321952,-0.0227272,0.008622273,-0.02189974
2023-11-06 21:23:46.091000064,-0.07340273,0.01062924,-0.03664889,-0.03076796,0.03241954,-0.0143112,-0.005812124,-0.004399899,0.004471696,-0.00762302839,0.0353589049999999,-0.0883604992,-0.02279461,0.008539969,-0.02180688
2023-11-06 21:23:46.104000000,-0.07304712,0.01046535,-0.03659991,-0.0369786,0.02686865,-0.01346607,-0.0053153,-0.003747127,0.004646992,-0.01293832839,0.0316117779999999,-0.0837135072,-0.02285231,0.008502373,-0.02171571
2023-11-06 21:23:46.117000192,-0.07286673,0.01046565,-0.03654474,-0.02847898,0.01905499,-0.01293253,-0.004691761,-0.003361767,0.004670704,-0.01763008939,0.0282500109999999,-0.0790428032,-0.0228988,0.008462254,-0.02163622
2023-11-06 21:23:46.131000064,-0.07300355,0.01052532,-0.03646289,-0.02314761,0.0117699,-0.01341705,-0.004095074,-0.002223311,0.004802519,-0.02172516339,0.0260266999999999,-0.0742402842,-0.02293839,0.008458719,-0.02156246
2023-11-06 21:23:46.144999936,-0.07303358,0.01044372,-0.03624609,-0.01659315,0.005374715,-0.01386919,-0.003518404,-0.001418916,0.004866852,-0.02524356739,0.0246077839999999,-0.0693734322,-0.02296754,0.008446767,-0.02149936
2023-11-06 21:23:46.158999808,-0.07287201,0.01043135,-0.03620872,-0.01253488,0.003630364,-0.01294756,-0.002780864,-0.0009473393,0.00483214,-0.02802443139,0.0236604446999999,-0.0645412922,-0.02295099,0.008445521,-0.02144704
2023-11-06 21:23:46.172000000,-0.07290214,0.01049545,-0.03617388,-0.007723082,-0.0005082121,-0.01003486,-0.002395909,-0.001084115,0.004725503,-0.03042034039,0.0225763296999999,-0.0598157892,-0.02294107,0.008425936,-0.02139421
2023-11-06 21:23:46.188000000,-0.07281635,0.0104968,-0.03610734,-0.00877454,-0.0003476535,-0.0100128,-0.001998876,-0.001124676,0.00481371,-0.03241921639,0.0214516536999999,-0.0550020792,-0.02294938,0.008407192,-0.0213267
2023-11-06 21:23:46.200000000,-0.07266251,0.0105027,-0.03605674,-0.01296746,0.0002292731,-0.008858455,-0.001777444,-0.001123102,0.00493347,-0.03419666039,0.0203285516999999,-0.0500686092,-0.02296865,0.008388899,-0.02125464
2023-11-06 21:23:46.213999872,-0.07252212,0.01055181,-0.03609395,-0.01621531,-0.0006545458,-0.003519378,-0.001700857,-0.001023887,0.005134426,-0.03589751739,0.0193046646999999,-0.0449341832,-0.02299058,0.008379195,-0.02117133
2023-11-06 21:23:46.228000000,-0.07251425,0.01052225,-0.0360776,-0.01169037,0.0008110978,-0.003488934,-0.001469517,-0.001321742,0.005194705,-0.03736703439,0.0179829226999999,-0.0397394782,-0.02300473,0.008356877,-0.02108672
2023-11-06 21:23:46.242000128,-0.07230949,0.01061857,-0.0361078,-0.01754726,-0.002786387,-0.0004206489,-0.00152552,-0.001317848,0.005250535,-0.03889255439,0.0166650746999999,-0.0344889432,-0.02302678,0.008347709,-0.02099187
2023-11-06 21:23:46.256000000,-0.07219226,0.01054496,-0.03605179,-0.01710695,0.0005576081,-0.003437187,-0.001188937,-0.001575383,0.005387167,-0.04008149139,0.0150896916999999,-0.0291017762,-0.02303103,0.008315094,-0.02091407
2023-11-06 21:23:46.268999936,-0.07205012,0.01053044,-0.03605229,-0.01798596,0.001703981,-0.002287807,-0.001032958,-0.001372702,0.005531504,-0.04111444939,0.0137169896999999,-0.0235702722,-0.02304096,0.008301888,-0.02083376
2023-11-06 21:23:46.282000128,-0.07200076,0.01054531,-0.03590267,-0.01521098,-0.0005564392,-0.007803521,-0.0009255279,-0.001069934,0.005665399,-0.04203997729,0.0126470556999999,-0.0179048732,-0.02304579,0.008290068,-0.02075234
2023-11-06 21:23:46.296999936,-0.07200309,0.01057467,-0.03592207,-0.01096676,-0.001385388,-0.004696765,-0.0004700049,-0.0007917931,0.005837246,-0.04250998219,0.0118552625999999,-0.0120676272,-0.02302149,0.008296069,-0.02067363
2023-11-06 21:23:46.311000064,-0.07201317,0.01060981,-0.03585604,-0.007984479,-0.002847738,-0.005892109,1.612632e-05,-0.0004617788,0.005907244,-0.04249385587,0.0113934837999999,-0.0061603832,-0.02299113,0.00830299,-0.0205966
2023-11-06 21:23:46.324999936,-0.07199313,0.01071519,-0.03579041,-0.007568649,-0.007211543,-0.006164111,0.0003020852,-0.0004386646,0.005924596,-0.04219177067,0.0109548191999999,-0.0002357872,-0.02297809,0.008292941,-0.02050753
2023-11-06 21:23:46.339000064,-0.07197491,0.01073426,-0.03584908,-0.006146788,-0.005528545,-0.001800082,0.0008807327,-0.001106294,0.005999559,-0.04131103797,0.0098485251999999,0.0057637717999999,-0.02294664,0.008260446,-0.02042095
2023-11-06 21:23:46.351000064,-0.07178084,0.01081413,-0.03588614,-0.01257465,-0.005826926,0.0014735,0.001347381,-0.001297843,0.005973843,-0.03996365697,0.0085506821999999,0.0117376147999999,-0.02292735,0.008232973,-0.02031097
2023-11-06 21:23:46.364999936,-0.07152825,0.01092768,-0.03590424,-0.01845421,-0.009306704,0.002400235,0.001510538,-0.001620802,0.006012311,-0.03845311897,0.0069298801999999,0.0177499257999999,-0.02292543,0.008188184,-0.02018095
2023-11-06 21:23:46.380000000,-0.0715236,0.01104951,-0.03587328,-0.02054053,-0.009059061,0.003524131,0.001898009,-0.001872535,0.006258462,-0.03655510997,0.0050573451999999,0.0240083877999999,-0.02290357,0.008141467,-0.02005127
2023-11-06 21:23:46.395000064,-0.07137608,0.01108021,-0.03578637,-0.01745797,-0.009198791,-0.001880727,0.002231346,-0.001938009,0.006705078,-0.03432376397,0.0031193361999999,0.0307134657999999,-0.02286353,0.008105907,-0.01994227
2023-11-06 21:23:46.408000000,-0.07137574,0.01106092,-0.0356786,-0.01283309,-0.006408758,-0.006046564,0.00245629,-0.002124715,0.007236061,-0.03186747397,0.0009946211999999,0.0379495267999999,-0.02282318,0.008062457,-0.01982686
2023-11-06 21:23:46.421999872,-0.07134,0.01113874,-0.03573842,-0.01168962,-0.006974794,0.0003211672,0.002548573,-0.002165506,0.007747656,-0.02931890097,-0.0011708848,0.0456971827999999,-0.02279734,0.008043207,-0.01970825
2023-11-06 21:23:46.436999936,-0.07121489,0.01121283,-0.0358109,-0.01374793,-0.006863095,0.003567649,0.002918773,-0.002349578,0.008032629,-0.02640012797,-0.0035204628,0.0537298117999999,-0.02275924,0.008023439,-0.01959335
2023-11-06 21:23:46.448000000,-0.07094018,0.0114179,-0.03614082,-0.01662097,-0.005881798,0.01223523,0.003269723,-0.003240432,0.00806847,-0.02313040497,-0.0067608948,0.0617982817999999,-0.02270726,0.007978995,-0.01947451
2023-11-06 21:23:46.463000064,-0.07035334,0.01130342,-0.03614753,-0.03100955,-0.001647891,0.01378309,0.003424667,-0.003742588,0.00810387,-0.01970573797,-0.0105034828,0.0699021517999999,-0.02265422,0.007911894,-0.01936432
2023-11-06 21:23:46.476999936,-0.07028201,0.01119098,-0.03603375,-0.03795563,0.002888724,0.009900763,0.00359608,-0.004023444,0.008037858,-0.01610965797,-0.0145269268,0.0779400097999999,-0.02259912,0.007840078,-0.01925929
2023-11-06 21:23:46.490000128,-0.07013051,0.01115674,-0.03600947,-0.03346223,0.004492051,0.007804541,0.003738314,-0.00431209,0.007892225,-0.01237134397,-0.0188390168,0.0858322347999999,-0.02253836,0.007775246,-0.01911495
2023-11-06 21:23:46.505000192,-0.06994581,0.01122427,-0.03623614,-0.02682864,0.005659401,0.007797562,0.00394515,-0.004141396,0.007873321,-0.00842619397,-0.0229804128,0.0937055557999999,-0.02247231,0.007744011,-0.01896414
2023-11-06 21:23:46.519000064,-0.07003747,0.01111481,-0.03648988,-0.02244751,0.006020337,0.008815064,0.004298046,-0.003662371,0.007712237,-0.00412814797,-0.0266427838,0.1014177927999999,-0.0223997,0.007724357,-0.01885908
2023-11-06 21:23:46.532999936,-0.06985243,0.01119044,-0.03639343,-0.01729485,0.003853107,0.01288483,0.004613454,-0.003090458,0.007417546,0.0004853060299999,-0.0297332418,0.1088353387999999,-0.02232648,0.007691984,-0.01875858
2023-11-06 21:23:46.546999808,-0.0697594,0.01121241,-0.0365519,-0.01307042,0.00314423,0.0138475,0.004965614,-0.00250208,0.00706252,0.0054509200299999,-0.0322353218,0.1158978587999999,-0.02223237,0.007684542,-0.01868004
2023-11-06 21:23:46.562000128,-0.06976198,0.01121622,-0.0366667,-0.008851647,0.002428424,0.01480851,0.005081906,-0.002368841,0.006418637,0.0105328260299999,-0.0346041628,0.1223164958,-0.02212087,0.007663447,-0.01864264
2023-11-06 21:23:46.576000000,-0.06965282,0.01121375,-0.03676809,-0.01095383,0.002749905,0.01486015,0.005354328,-0.002321384,0.005850251,0.0158871540299999,-0.0369255468,0.1281667467999999,-0.02200418,0.007640379,-0.01860771
2023-11-06 21:23:46.589999872,-0.06953008,0.01121196,-0.03678842,-0.01327563,0.00232365,0.01058025,0.005451707,-0.002484591,0.005450447,0.0213388610299999,-0.0394101378,0.1336171937999999,-0.02192433,0.007601631,-0.01854276
2023-11-06 21:23:46.602999808,-0.0694555,0.01119283,-0.036922,-0.0118705,0.004111129,0.01282946,0.005573194,-0.002826857,0.00508477,0.0269120550299999,-0.0422369948,0.1387019637999999,-0.0218427,0.00756069,-0.01848386
2023-11-06 21:23:46.618000128,-0.06939644,0.01127964,-0.0369359,-0.01426631,0.002180361,0.0148667,0.005328828,-0.002566983,0.004646648,0.0322408830299999,-0.0448039778,0.1433486117999999,-0.02178516,0.007539897,-0.01841445
2023-11-06 21:23:46.632000000,-0.06923739,0.01131555,-0.03708874,-0.01268504,-0.001140335,0.01246352,0.004987617,-0.002161837,0.0042277,0.0372285000299999,-0.0469658148,0.1475763117999999,-0.02173949,0.007541983,-0.01834212
2023-11-06 21:23:46.647000064,-0.06921668,0.01130098,-0.03716594,-0.00921961,0.0005481468,0.01146837,0.004975305,-0.001943548,0.00424026,0.0422038050299999,-0.0489093628,0.1518165717999999,-0.02168288,0.007532528,-0.01826648
2023-11-06 21:23:46.660000000,-0.06920816,0.01131958,-0.03713454,-0.006288048,-0.0006827558,0.00705779,0.004735221,-0.001230411,0.004033856,0.0469390260299999,-0.0501397738,0.1558504277999999,-0.02162355,0.007534157,-0.01821534
2023-11-06 21:23:46.674000128,-0.06929454,0.01135367,-0.03707943,-0.0003690118,-0.003451879,0.002494738,0.004352049,-0.0008951887,0.004089164,0.0512910750299999,-0.0510349625,0.1599395917999999,-0.02157277,0.007527864,-0.01815451
2023-11-06 21:23:46.688000000,-0.06940935,0.01136869,-0.03727501,0.005495447,-0.001739612,0.01110322,0.00432017,-0.001110033,0.004036549,0.0556112450299999,-0.0521449955,0.1639761407999999,-0.02149841,0.007519486,-0.01812228
2023-11-06 21:23:46.701999872,-0.06938423,0.0115234,-0.03741609,0.002629092,-0.006970122,0.01504394,0.004173486,-0.001204152,0.004068399,0.0597847310299999,-0.0533491475,0.1680445397999999,-0.02142797,0.007512242,-0.0180785
2023-11-06 21:23:46.714999808,-0.06926461,0.01164481,-0.0374754,-0.004182855,-0.009057413,0.0139158,0.004161619,-0.001088343,0.004240244,0.0639463500299999,-0.0544374905,0.1722847837999999,-0.0213644,0.007505057,-0.01801621
2023-11-06 21:23:46.729000192,-0.06923959,0.01177242,-0.03739579,-0.004932219,-0.01279126,0.007232184,0.003849849,-0.001232966,0.004363932,0.0677961990299999,-0.0556704565,0.1766487157999999,-0.02131903,0.007479473,-0.01794381
2023-11-06 21:23:46.743000064,-0.06910262,0.01188469,-0.03728677,-0.01077181,-0.014649,0.0007529005,0.003466553,-0.001097274,0.004716611,0.0712627520299999,-0.0567677305,0.1813653267999999,-0.02128159,0.007462172,-0.01786054
2023-11-06 21:23:46.756999936,-0.06906331,0.01200199,-0.03724237,-0.009901941,-0.01578556,-0.0004132393,0.003129065,-0.001635659,0.004902788,0.0743918170299999,-0.0584033895,0.1862681147999999,-0.02127304,0.007434146,-0.01778052
2023-11-06 21:23:46.770999808,-0.06874295,0.01221722,-0.03720628,-0.01671918,-0.0178662,-0.001539877,0.002683025,-0.001807337,0.005226416,0.0770748420299999,-0.0602107265,0.1914945307999999,-0.02127345,0.007415494,-0.01768521
2023-11-06 21:23:46.784000000,-0.06856198,0.0122377,-0.03710012,-0.02183472,-0.01584076,-0.003452594,0.002183746,-0.002013294,0.005610596,0.0792585880299999,-0.0622240205,0.1971051267999999,-0.02126566,0.007378833,-0.01759282
2023-11-06 21:23:46.799000064,-0.06851587,0.01229453,-0.03709153,-0.02028918,-0.01285623,-0.003250235,0.001625994,-0.002379318,0.005985064,0.0808845820299999,-0.0646033385,0.2030901908,-0.02125867,0.007334461,-0.0174966
2023-11-06 21:23:46.812999936,-0.06847187,0.0122517,-0.03704024,-0.01860864,-0.008663873,-0.00510446,0.001112542,-0.002279217,0.006393381,0.0819971240299999,-0.0668825555,0.2094835718,-0.02125277,0.007304478,-0.01740273
2023-11-06 21:23:46.825999872,-0.06836859,0.01238394,-0.03702965,-0.01627192,-0.008265946,-0.0008261409,0.0005861865,-0.002207655,0.006705325,0.0825833105299999,-0.0690902105,0.2161888968,-0.02123417,0.007285967,-0.01731236
2023-11-06 21:23:46.840000000,-0.06825263,0.01240647,-0.0370381,-0.01697405,-0.006084642,0.0004224338,0.000360067,-0.002232626,0.006947987,0.0829433775299999,-0.0713228365,0.2231368838,-0.0212108,0.007264353,-0.01722587
2023-11-06 21:23:46.854000128,-0.06810347,0.01238948,-0.03709509,-0.01837817,-0.001722102,0.002922099,0.0001430046,-0.002714456,0.007084176,0.0830863821299999,-0.0740372925,0.2302210598,-0.0212105,0.007218226,-0.01712851
2023-11-06 21:23:46.868000000,-0.06776589,0.0124712,-0.03696906,-0.02535792,-0.004864878,0.001729045,-0.0004415479,-0.00301652,0.007094464,0.0826448342299999,-0.0770538125,0.2373155237999999,-0.02123405,0.007160486,-0.01702255
2023-11-06 21:23:46.881999872,-0.06765424,0.01261085,-0.03697828,-0.02632026,-0.003308637,-0.0024072,-0.0007835792,-0.003133641,0.007173724,0.0818612550299999,-0.0801874535,0.2444892477999999,-0.02125398,0.007121953,-0.01690866
2023-11-06 21:23:46.896000000,-0.06754111,0.01263702,-0.03681971,-0.02353478,-0.005739984,-0.004792086,-0.001236107,-0.003168277,0.007252541,0.0806251480299999,-0.0833557305,0.2517417888,-0.02128399,0.007087036,-0.01679455
2023-11-06 21:23:46.908999936,-0.06745101,0.01261821,-0.03673548,-0.02393819,-0.007501641,-0.009214378,-0.001508315,-0.002563918,0.007468131,0.0791168330299999,-0.0859196485,0.2592099197999999,-0.02131228,0.007080084,-0.01667789
2023-11-06 21:23:46.924000000,-0.06735858,0.01272807,-0.03661937,-0.01676872,-0.009605723,-0.01058259,-0.001827823,-0.002339649,0.007670474,0.0772890100299999,-0.0882592975,0.2668803937999999,-0.02134761,0.00704711,-0.01655823
2023-11-06 21:23:46.937999872,-0.06735748,0.01289508,-0.0363353,-0.01820606,-0.01130102,-0.01389143,-0.002144004,-0.001755876,0.007969296,0.0751450060299999,-0.0900151735,0.2748496897999999,-0.02138832,0.007022209,-0.01642808
2023-11-06 21:23:46.952000000,-0.06720185,0.01278353,-0.0362724,-0.01403101,-0.01176679,-0.01616581,-0.002537884,-0.002018353,0.008115971,0.0726071220299999,-0.0920335265,0.2829656607999999,-0.02143639,0.006994158,-0.01634623
2023-11-06 21:23:46.966000128,-0.06713563,0.01285103,-0.03610748,-0.01993236,-0.007312929,-0.01996866,-0.00275934,-0.001782525,0.008333659,0.0698477820299999,-0.0938160515,0.2912993197999999,-0.02148389,0.006980127,-0.01625362
2023-11-06 21:23:46.979000064,-0.06674492,0.01270604,-0.03599993,-0.02238409,-0.002793184,-0.01742681,-0.003081649,-0.002150441,0.008413075,0.0667661330299999,-0.0959664925,0.2997123947999999,-0.02153752,0.006939908,-0.01616117
2023-11-06 21:23:46.992999936,-0.06667874,0.01266986,-0.03593953,-0.02487039,0.001791994,-0.01592764,-0.003290042,-0.002346831,0.008590165,0.0634760910299999,-0.0983133235,0.3083025597999999,-0.02158999,0.006898199,-0.01603911
2023-11-06 21:23:47.007000064,-0.06642142,0.01260811,-0.03582219,-0.02773925,0.004551656,-0.01778794,-0.003628167,-0.002311236,0.008731673,0.0598479240299999,-0.1006245595,0.3170342327999999,-0.02165022,0.006858396,-0.01591636
2023-11-06 21:23:47.020999936,-0.06617056,0.01248762,-0.03575769,-0.02784511,0.01110384,-0.0183083,-0.003711041,-0.002436491,0.008948771,0.0561368830299999,-0.1030610505,0.3259830037999999,-0.02175107,0.006824233,-0.01575835
2023-11-06 21:23:47.035000064,-0.06602196,0.01237664,-0.03558762,-0.02465408,0.010438,-0.01628328,-0.003981268,-0.002545768,0.009060738,0.0521556150299999,-0.1056068185,0.3350437417999999,-0.02186287,0.006784045,-0.01560073
2023-11-06 21:23:47.048999936,-0.06588852,0.01226893,-0.03550007,-0.02629617,0.01399154,-0.01702241,-0.003835707,-0.002190545,0.009131619,0.0483199080299999,-0.1077973635,0.3441753607999999,-0.02193408,0.006760772,-0.01546238
2023-11-06 21:23:47.063000064,-0.06565747,0.01218343,-0.0354921,-0.02506193,0.01480421,-0.0158995,-0.003722566,-0.002193708,0.008828727,0.0445973420299999,-0.1099910715,0.3530040877999999,-0.02198348,0.006727946,-0.0153531
2023-11-06 21:23:47.076999936,-0.06551895,0.01214388,-0.035423,-0.02365764,0.01656035,-0.01362207,-0.003496254,-0.002316503,0.008447758,0.0411010880299999,-0.1123075745,0.3614518457999999,-0.02202788,0.006686964,-0.0152495
2023-11-06 21:23:47.089999872,-0.06527704,0.01203716,-0.03526959,-0.02368029,0.01665291,-0.0146792,-0.003334786,-0.002332644,0.007839227,0.0377663020299999,-0.1146402185,0.3692910727999999,-0.02208168,0.006646053,-0.01518165
2023-11-06 21:23:47.104000000,-0.06526964,0.01190305,-0.03535498,-0.02375766,0.01523042,-0.01053131,-0.003097419,-0.002335045,0.007330025,0.0346688830299999,-0.1169752635,0.3766210977999999,-0.02212838,0.006619927,-0.01512199
2023-11-06 21:23:47.119000064,-0.06504832,0.01171219,-0.03528986,-0.02142933,0.01558554,-0.006252793,-0.002482094,-0.00233888,0.006773895,0.0321867890299999,-0.1193141435,0.3833949927999999,-0.02214986,0.006582444,-0.0150595
2023-11-06 21:23:47.132000000,-0.0649866,0.01178455,-0.03515845,-0.02073428,0.01351496,-0.008582689,-0.002075996,-0.002003272,0.006203572,0.0301107930299999,-0.1213174155,0.3895985647999999,-0.0221692,0.006555248,-0.01498299
2023-11-06 21:23:47.145999872,-0.06484959,0.01176178,-0.03520272,-0.01888329,0.01072571,-0.004572913,-0.001673252,-0.001742473,0.005509787,0.0284375410299999,-0.1230598885,0.3951083517999998,-0.02218251,0.006540539,-0.0149258
2023-11-06 21:23:47.160000000,-0.06475986,0.01177856,-0.03528843,-0.01542821,0.004670341,-0.003031741,-0.001310512,-0.0009801608,0.004939287,0.0271270290299999,-0.1240400493,0.4000476387999999,-0.02220071,0.006577153,-0.01485822
2023-11-06 21:23:47.173000192,-0.06490634,0.01182747,-0.03509056,-0.003712934,-0.001777773,-0.01130375,-0.0008772052,-0.0005133751,0.004402693,0.0262498238299999,-0.1245534244,0.4044503317999999,-0.02221167,0.006596661,-0.01479521
2023-11-06 21:23:47.187000064,-0.06499045,0.01185435,-0.0349534,0.001198379,-0.004463408,-0.01376816,-0.0005238478,0.0002363231,0.004055554,0.0257259760299999,-0.1243171013,0.4085058857999999,-0.02221206,0.006621456,-0.01474068
2023-11-06 21:23:47.200999936,-0.06504122,0.01189643,-0.03498849,0.003401979,-0.005350871,-0.007450956,-9.534182e-06,0.0009256448,0.003778029,0.0257164418479999,-0.1233914565,0.4122839147999999,-0.02219713,0.006656476,-0.0146934
2023-11-06 21:23:47.214999808,-0.06503876,0.01197243,-0.03503072,0.001228573,-0.006573524,-0.002164966,0.0006677054,0.001181499,0.003358256,0.0263841472479999,-0.1222099575,0.4156421707999999,-0.0221706,0.006688167,-0.01466292
2023-11-06 21:23:47.229000192,-0.06491841,0.01207578,-0.03514767,-0.006170526,-0.007207921,0.005403069,0.0009893687,0.0008259419,0.002773225,0.0273735159479999,-0.1213840156,0.4184153957999999,-0.02215187,0.006710506,-0.01465918
2023-11-06 21:23:47.243000064,-0.06478163,0.01211086,-0.03523397,-0.01108015,-0.004524431,0.007871483,0.001341669,0.000554094,0.002188974,0.0287151849479999,-0.1208299216,0.4206043697999999,-0.0221277,0.006726696,-0.01466371
2023-11-06 21:23:47.256999936,-0.06475088,0.01213786,-0.03511256,-0.009256282,-0.005211054,0.0002741109,0.001498406,0.001103262,0.001908411,0.0302135909479999,-0.1197266596,0.4225127807999999,-0.02210367,0.006748439,-0.01464308
2023-11-06 21:23:47.270999808,-0.06489155,0.01211607,-0.03499576,0.0004173162,-0.003932368,-0.006204632,0.001847818,0.001974997,0.001805402,0.0320614089479999,-0.1177516626,0.4243181827999999,-0.02207023,0.006791478,-0.01462285
2023-11-06 21:23:47.285000192,-0.06509469,0.01214635,-0.03503155,0.01010951,-0.004666221,-0.002149803,0.001922404,0.002331486,0.00166432,0.0339838129479999,-0.1154201766,0.4259825027999999,-0.02204411,0.006849653,-0.01459769
2023-11-06 21:23:47.299000064,-0.06518061,0.01215479,-0.0349737,0.01114387,-0.004724225,-0.003244451,0.002105309,0.002302422,0.001344228,0.0360891219479999,-0.1131177546,0.4273267307999999,-0.02201228,0.006895341,-0.01458157
2023-11-06 21:23:47.312999936,-0.06516807,0.01217815,-0.03506983,0.007201859,-0.003629892,0.003354075,0.00230855,0.001854476,0.001181453,0.0383976719479999,-0.1112632786,0.4285081837999999,-0.02197531,0.006925461,-0.01456498
2023-11-06 21:23:47.326999808,-0.06519591,0.01215947,-0.03509396,0.006463834,-0.001375897,0.003569824,0.002440223,0.001101011,0.001218206,0.0408378949479999,-0.1101622676,0.4297263897999999,-0.02193712,0.006922288,-0.0145475
2023-11-06 21:23:47.341000192,-0.06515381,0.01212832,-0.03520069,0.002782529,0.002106078,0.007162552,0.002597048,0.0005697497,0.001410435,0.0434349429479999,-0.1095925179,0.4311368247999999,-0.0218977,0.006922087,-0.01452629
2023-11-06 21:23:47.355000064,-0.06510515,0.01215833,-0.0352826,-0.0004919474,0.001331979,0.00929377,0.00255861,-0.0002247391,0.001457492,0.0459935529479999,-0.109817257,0.4325943167999999,-0.0218877,0.006901658,-0.01453984
2023-11-06 21:23:47.368999936,-0.06497286,0.0121662,-0.03532029,-0.006977274,0.001312332,0.008331629,0.002534016,-0.0009620175,0.001340847,0.0485275689479999,-0.1107792745,0.4339351637999999,-0.02187751,0.006868599,-0.01456112
2023-11-06 21:23:47.382999808,-0.06479025,0.0121724,-0.03544148,-0.01323282,0.001960155,0.01171359,0.002575493,-0.001936488,0.001171582,0.0511030619479999,-0.1127157625,0.4351067457999999,-0.02184951,0.006822802,-0.01456521
2023-11-06 21:23:47.396000000,-0.06453072,0.01220006,-0.03562604,-0.01945184,0.002413864,0.01722254,0.002702973,-0.002697171,0.0008437354,0.0538060349479999,-0.1154129335,0.4359504811999999,-0.02180631,0.006776733,-0.01455981
2023-11-06 21:23:47.410000128,-0.06441186,0.01233593,-0.03574398,-0.02500127,0.00101002,0.01826883,0.00271183,-0.00287575,0.0005168261,0.0565178649479999,-0.1182886835,0.4364673072999999,-0.02177311,0.006739155,-0.01455217
2023-11-06 21:23:47.424000000,-0.06424779,0.01238728,-0.03565675,-0.02360734,-0.003123206,0.01357628,0.002435972,-0.002661348,0.0002855593,0.0589538369479999,-0.1209500315,0.4367528665999999,-0.02179192,0.006693708,-0.01454678
2023-11-06 21:23:47.437999872,-0.06417494,0.01241237,-0.03570177,-0.01665993,-0.005827941,0.007839699,0.002343554,-0.00202415,1.739874e-05,0.0612973909479999,-0.1229741815,0.4367702653399999,-0.02180471,0.00667753,-0.01454869
2023-11-06 21:23:47.452000000,-0.06422252,0.01248595,-0.03562745,-0.009709721,-0.008535528,0.002107414,0.002245961,-0.001415541,-0.0001648874,0.0635433519479999,-0.1243897225,0.4366053779399999,-0.02178859,0.006667572,-0.01454887
2023-11-06 21:23:47.466000128,-0.06429938,0.01257631,-0.03571037,-0.003328538,-0.009876832,0.006161526,0.002098288,-0.001439266,-0.0006539291,0.0656416399479999,-0.1258289885,0.4359514488399999,-0.02176121,0.006651665,-0.01456593
2023-11-06 21:23:47.480000000,-0.06426103,0.01269504,-0.0358138,-0.00448371,-0.0110644,0.009287913,0.001959724,-0.001240009,-0.0009532788,0.0676013639479999,-0.1270689975,0.4349981700399999,-0.02173951,0.006651542,-0.01458872
2023-11-06 21:23:47.493999872,-0.06432906,0.01283234,-0.035871,-0.0005796443,-0.01389282,0.01002719,0.001633469,-0.001204528,-0.001531851,0.0692348329479999,-0.1282735255,0.4334663190399999,-0.02173146,0.006654675,-0.0146414
2023-11-06 21:23:47.508000000,-0.06439177,0.01284793,-0.03582874,0.002958752,-0.01072722,0.004895417,0.001290254,-0.001079084,-0.001867119,0.0705250869479999,-0.1293526095,0.4315992000399999,-0.02173002,0.006656424,-0.01469634
2023-11-06 21:23:47.522000128,-0.06438923,0.01284781,-0.0357834,0.002310879,-0.007027116,0.0009622641,0.0007976497,-0.0007781045,-0.00236552,0.0713227366479999,-0.130130714,0.4292336800399999,-0.02173308,0.006652887,-0.01474264
2023-11-06 21:23:47.536000000,-0.06438147,0.01289016,-0.03572683,0.001220572,-0.006670544,-0.001129029,0.0001469449,-0.0007851361,-0.002940797,0.0714696815479999,-0.1309158501,0.4262928830399999,-0.02175022,0.006639995,-0.01479582
2023-11-06 21:23:47.549999872,-0.06431594,0.01292947,-0.0356314,-0.002154509,-0.006945509,-0.004313124,-0.0003846888,-0.0004805964,-0.003340405,0.0710849927479999,-0.1313964465,0.4229524780399999,-0.02177755,0.006645833,-0.01484544
2023-11-06 21:23:47.563000064,-0.06434783,0.0129317,-0.03560396,0.0002891052,-0.005263811,-0.003130856,-0.0009509125,-0.0002577102,-0.003557858,0.0701340802479999,-0.1316541567,0.4193946200399999,-0.02183489,0.006676551,-0.01488062
2023-11-06 21:23:47.576999936,-0.06448109,0.01285163,-0.03549561,0.007155946,-0.001620964,-0.007212989,-0.001566783,6.763331e-05,-0.003594564,0.0685672972479999,-0.13158652339,0.4158000560399999,-0.02190132,0.00670873,-0.01491784
2023-11-06 21:23:47.591000064,-0.06459225,0.01276749,-0.03552881,0.01116977,0.002852743,-0.003656912,-0.002024055,0.0006204738,-0.003296866,0.0665432422479999,-0.13096604959,0.4125031900399999,-0.02194637,0.006739113,-0.01495817
2023-11-06 21:23:47.604999936,-0.0647321,0.01271069,-0.03548721,0.01446305,0.0035272,-0.004729638,-0.002490463,0.00117621,-0.003118983,0.0640527792479999,-0.12978983959,0.4093842070399999,-0.02199402,0.006768469,-0.01500094
2023-11-06 21:23:47.619000064,-0.06479129,0.01267302,-0.03551274,0.01240094,0.003646067,-0.00253228,-0.002870631,0.001547405,-0.003050877,0.0611821482479999,-0.12824243459,0.4063333300399999,-0.02204642,0.006816687,-0.01505653
2023-11-06 21:23:47.632999936,-0.06488465,0.01260006,-0.03557834,0.01277994,0.005450264,0.0008438629,-0.003061391,0.001022824,-0.003176844,0.0581207572479999,-0.12721961059,0.4031564860399999,-0.02209843,0.006841358,-0.0151277
2023-11-06 21:23:47.647000064,-0.06481098,0.01260373,-0.03566845,0.00518092,0.004066085,0.005148915,-0.003358592,0.0007529075,-0.003247233,0.0547621652479999,-0.12646670309,0.3999092530399998,-0.02215446,0.006863484,-0.01518546
2023-11-06 21:23:47.660999936,-0.06477509,0.01255655,-0.03566864,0.001987701,0.004733761,0.003125286,-0.003384446,0.0003095042,-0.003156317,0.0513777192479999,-0.12615719889,0.3967529360399998,-0.02220206,0.006855939,-0.01522992
2023-11-06 21:23:47.675000064,-0.06477798,0.01258126,-0.03572229,0.001704248,0.002440278,0.005065307,-0.003422935,0.0002121974,-0.002844049,0.0479547842479999,-0.12594500149,0.3939088870399998,-0.02225032,0.006858667,-0.01525796
2023-11-06 21:23:47.688000000,-0.06486312,0.01267219,-0.03570082,0.005090878,-0.003338307,0.003402134,-0.003731166,0.0003881415,-0.002461783,0.0442236182479999,-0.12555685999,0.3914471040399998,-0.02231796,0.006848072,-0.01524767
2023-11-06 21:23:47.703000064,-0.06497244,0.0127835,-0.0356197,0.008438522,-0.008922885,-0.00038639,-0.003918223,0.0005225689,-0.002005633,0.0403053952479999,-0.12503429109,0.3894414710399998,-0.02238495,0.006836228,-0.01522765
2023-11-06 21:23:47.716999936,-0.06506721,0.01291227,-0.0355644,0.009882407,-0.01333714,-0.001887628,-0.004189198,0.0005009708,-0.001572461,0.0361161972479999,-0.12453332029,0.3878690100399998,-0.02245156,0.006834563,-0.01521924
2023-11-06 21:23:47.730000128,-0.0650768,0.01303589,-0.03545715,0.006189755,-0.01572048,-0.005249907,-0.004401297,0.0005821584,-0.00118974,0.0317149002479999,-0.12395116189,0.3866792700399998,-0.02251935,0.006839537,-0.01521772
2023-11-06 21:23:47.744000000,-0.06506961,0.01317981,-0.03541465,0.00273679,-0.01744078,-0.004263563,-0.004735394,0.000241729,-0.0007903607,0.0269795062479999,-0.12370943289,0.3858889093399998,-0.02259293,0.006833445,-0.01521062
2023-11-06 21:23:47.757999872,-0.06503851,0.01337481,-0.03527506,-0.0008897953,-0.0201155,-0.004432483,-0.005290247,-0.0003342842,-0.000618818,0.0216892592479999,-0.12404371709,0.3852700913399998,-0.02267276,0.006817148,-0.01520848
2023-11-06 21:23:47.772000000,-0.0649765,0.01348597,-0.03526379,-0.005256257,-0.02053595,-0.004378922,-0.005797105,-0.0007814807,-0.0002578618,0.0158921542479999,-0.12482519779,0.3850122295399998,-0.02275785,0.006805415,-0.01520089
2023-11-06 21:23:47.786000128,-0.06496073,0.01356101,-0.03515005,-0.006165965,-0.01923552,-0.005312166,-0.006348978,-0.001223621,0.0001408639,0.0095431762479999,-0.12604881879,0.3851530934399998,-0.02285691,0.006772387,-0.01518481
2023-11-06 21:23:47.800000000,-0.06480864,0.01362598,-0.03513176,-0.00905164,-0.01647055,-0.007148573,-0.006927321,-0.0011166,0.000734417,0.0026158552479999,-0.12716541879,0.3858875104399998,-0.02296637,0.006759984,-0.01515364
2023-11-06 21:23:47.813999872,-0.06479041,0.01369587,-0.03518889,-0.006200377,-0.0130745,-0.001542658,-0.007414447,-0.001171413,0.001144869,-0.004798591752,-0.12833683179,0.3870323794399998,-0.02309044,0.006752063,-0.01511948
2023-11-06 21:23:47.828000000,-0.06469232,0.01373139,-0.03508763,-0.00910634,-0.01021595,-0.004433033,-0.008204915,-0.0007734143,0.001520201,-0.013003506752,-0.12911024609,0.3885525804399998,-0.02325441,0.006765321,-0.01507309
2023-11-06 21:23:47.842000128,-0.06461661,0.01378796,-0.0350376,-0.009998647,-0.009010936,-0.004301906,-0.008999765,-0.0008655507,0.00166654,-0.022003271752,-0.12997579679,0.3902191204399998,-0.02342771,0.006765718,-0.01503048
2023-11-06 21:23:47.856000000,-0.0645538,0.01382402,-0.03497772,-0.009864199,-0.007864414,-0.005272029,-0.009750853,-0.001016355,0.001806118,-0.031754124752,-0.13099215179,0.3920252384399998,-0.02358387,0.006744779,-0.01499868
2023-11-06 21:23:47.869999872,-0.06441866,0.01386693,-0.03499783,-0.0138375,-0.006484999,-0.001834829,-0.01042315,-0.000929065,0.001978519,-0.042177274752,-0.13192121679,0.3940037574399998,-0.02374502,0.006733666,-0.01496432
2023-11-06 21:23:47.884000000,-0.06444285,0.01390585,-0.03492771,-0.008630252,-0.007067127,-0.004156372,-0.01090839,-0.001021238,0.002138963,-0.053085664752,-0.13294245479,0.3961427204399998,-0.02388942,0.006718731,-0.01493935
2023-11-06 21:23:47.898000128,-0.06445447,0.01394033,-0.03483262,-0.006368463,-0.006330944,-0.004140986,-0.01116373,-0.0008834268,0.002480111,-0.064249394752,-0.13382588159,0.3986228314399998,-0.02401574,0.006717406,-0.0149164
2023-11-06 21:23:47.912000000,-0.06441797,0.01403373,-0.03471569,-0.006075135,-0.01018933,-0.009868789,-0.01171934,-0.0007997397,0.002537583,-0.075968734752,-0.13462562129,0.4011604144399998,-0.02415707,0.006714892,-0.01489242
2023-11-06 21:23:47.926000128,-0.06439719,0.0141474,-0.03459014,-0.005521508,-0.01339333,-0.01125282,-0.01214106,-0.001001081,0.002541821,-0.088109794752,-0.13562670229,0.4037022354399998,-0.02433696,0.006689644,-0.01484935
2023-11-06 21:23:47.940000000,-0.06418873,0.01426992,-0.03436009,-0.01261453,-0.01606308,-0.01776648,-0.01260184,-0.0005833911,0.002636496,-0.100711634752,-0.13621009339,0.4063387314399998,-0.02452433,0.006679074,-0.01480095
2023-11-06 21:23:47.953999872,-0.06436362,0.01436669,-0.03406024,-0.006533789,-0.01774955,-0.02128224,-0.01289675,-0.0005941832,0.002969681,-0.113608384752,-0.13680427659,0.4093084124399998,-0.0246688,0.006675635,-0.01473448
2023-11-06 21:23:47.968000000,-0.06437393,0.01443645,-0.03409042,-0.00220829,-0.01720988,-0.02241839,-0.01312317,-0.0001602153,0.003357232,-0.126731554752,-0.13696449189,0.4126656444399998,-0.02480914,0.006712044,-0.014661
2023-11-06 21:23:47.982000128,-0.06453884,0.01451018,-0.0340145,0.004667102,-0.01692729,-0.01291317,-0.01317669,0.0001072575,0.00400082,-0.139908244752,-0.13685723439,0.4166664644399998,-0.02497297,0.006727776,-0.01458035
2023-11-06 21:23:47.996000000,-0.06452969,0.01460996,-0.03396422,0.005303591,-0.01437005,-0.00626062,-0.01317422,9.101917e-05,0.004437044,-0.153082464752,-0.13676621522,0.4211035084399998,-0.0251569,0.00672691,-0.01450128
2023-11-06 21:23:48.008999936,-0.06444713,0.01471424,-0.03393311,-0.002153475,-0.01455372,-0.003931511,-0.0136225,-0.000143257,0.00478416,-0.166704964752,-0.13690947222,0.4258876684399998,-0.02535525,0.006717651,-0.01442481
2023-11-06 21:23:48.024000000,-0.0643756,0.01470831,-0.03389387,-0.004717974,-0.009800061,-0.004491098,-0.01361332,-0.0007229516,0.004947679,-0.180318284752,-0.13763242382,0.4308353474399998,-0.02553727,0.006697685,-0.01438919
2023-11-06 21:23:48.036999936,-0.06423037,0.01469517,-0.03375656,-0.009812294,-0.006444374,-0.009401103,-0.01365456,-0.0006094609,0.005302844,-0.193972844752,-0.1382418847199999,0.4361381914399997,-0.02572396,0.006691819,-0.01434282
2023-11-06 21:23:48.052000000,-0.06406067,0.01465043,-0.03334809,-0.01614091,-0.003902163,-0.01542157,-0.0136943,-0.0004729332,0.005547854,-0.207667144752,-0.1387148179199999,0.4416860454399998,-0.02591604,0.006665521,-0.01426978
2023-11-06 21:23:48.064999936,-0.0639245,0.01478443,-0.03346739,-0.01855959,-0.005683837,-0.01551981,-0.01387802,-0.0008995166,0.005524955,-0.221545164752,-0.13961433452,0.4472110004399998,-0.02611167,0.006648882,-0.01418472
2023-11-06 21:23:48.079000064,-0.06376558,0.0147388,-0.03332669,-0.02261158,-0.004034217,-0.01525323,-0.01365028,-0.001030523,0.00554873,-0.235195444752,-0.14064485752,0.4527597304399998,-0.0262938,0.006614419,-0.01409998
2023-11-06 21:23:48.092999936,-0.06374142,0.01471823,-0.03314582,-0.0182784,-0.003491137,-0.01639661,-0.013413,-0.001113429,0.005537985,-0.248608444752,-0.14175828652,0.4582977154399998,-0.02646708,0.006561107,-0.01399075
2023-11-06 21:23:48.105999872,-0.06366701,0.01469904,-0.03311385,-0.01160014,-0.002484854,-0.01434653,-0.01309241,-0.001185701,0.005636458,-0.261700854752,-0.14294398752,0.4639341734399998,-0.02663372,0.006518467,-0.01387919
2023-11-06 21:23:48.120999936,-0.06375018,0.01466346,-0.0329987,-0.002907773,-0.001476717,-0.01556893,-0.01272515,-0.001144802,0.005734072,-0.274426004752,-0.14408878952,0.4696682454399998,-0.02680156,0.006494938,-0.01379352
2023-11-06 21:23:48.135000064,-0.06369273,0.01457813,-0.03293445,-0.004375173,0.002917978,-0.01403207,-0.01217772,-0.0009606327,0.005851193,-0.286603724752,-0.14504942222,0.4755194384399998,-0.02695759,0.006482379,-0.01371432
2023-11-06 21:23:48.148999936,-0.06366774,0.01449409,-0.03289413,-0.003860829,0.005864833,-0.0116145,-0.0116069,-0.00141802,0.005697889,-0.298210624752,-0.14646744222,0.4812173274399998,-0.02709404,0.006449349,-0.01365054
2023-11-06 21:23:48.161999872,-0.06351552,0.01437971,-0.03297132,-0.009241821,0.01138849,-0.004492254,-0.01078427,-0.001875233,0.005454167,-0.308994894752,-0.14834267522,0.4866714944399998,-0.02720103,0.006417701,-0.01360047
2023-11-06 21:23:48.176000000,-0.06336997,0.0143232,-0.03300175,-0.01233951,0.01162777,-0.002235419,-0.01013371,-0.002230283,0.005182336,-0.319128604752,-0.15057295822,0.4918538304399998,-0.02730595,0.006380662,-0.01355123
2023-11-06 21:23:48.190000128,-0.06303944,0.01433599,-0.03316534,-0.01982999,0.00994827,0.004251358,-0.009408318,-0.001877254,0.004819339,-0.328536922752,-0.15245021222,0.4966731694399998,-0.02741869,0.00637309,-0.01349155
2023-11-06 21:23:48.204000000,-0.06307471,0.01431546,-0.03319981,-0.01568664,0.007992889,0.007163065,-0.008504586,-0.001911154,0.004473908,-0.337041508752,-0.15436136622,0.5011470774399998,-0.02751555,0.006346042,-0.01343992
2023-11-06 21:23:48.217999872,-0.06295495,0.01435572,-0.03318908,-0.01634702,0.004004732,0.004645331,-0.007688329,-0.001225636,0.00411722,-0.344729837752,-0.15558700222,0.5052642974399998,-0.0276105,0.006340363,-0.01339185
2023-11-06 21:23:48.232000000,-0.06303155,0.0144302,-0.03313851,-0.006665819,-0.002411879,0.0005307462,-0.007028496,-0.0007195773,0.003895502,-0.351758333752,-0.15630657952,0.5091597994399998,-0.02770303,0.006332591,-0.01334474
2023-11-06 21:23:48.248000000,-0.06305591,0.01451886,-0.03328307,-0.003430487,-0.004744793,0.0087981,-0.006370769,1.321053e-05,0.00364588,-0.358129102752,-0.15629336899,0.5128056794399998,-0.02778217,0.006354145,-0.0132985
2023-11-06 21:23:48.260999936,-0.06322002,0.01472634,-0.03343544,0.003564667,-0.01081806,0.01659349,-0.005816366,0.0005153576,0.003462759,-0.363945468752,-0.15577801139,0.5162684384399998,-0.02784875,0.00638264,-0.01324345
2023-11-06 21:23:48.273999872,-0.06335714,0.01481664,-0.03348275,0.006448541,-0.01346263,0.01732922,-0.005094576,0.0008863233,0.003315016,-0.369040044752,-0.15489168809,0.5195834544399998,-0.02790203,0.006407387,-0.01319601
2023-11-06 21:23:48.287000064,-0.06334193,0.01507321,-0.03356421,0.004610919,-0.01845992,0.01581324,-0.004773028,0.001227811,0.003090945,-0.373813072752,-0.15366387709,0.5226743994399997,-0.0279439,0.006439761,-0.01315291
2023-11-06 21:23:48.301000192,-0.06331272,0.01519313,-0.03369321,0.004792395,-0.0175196,0.01696938,-0.004442527,0.001135829,0.002909734,-0.378255599752,-0.15252804809,0.5255841334399998,-0.02797307,0.006461803,-0.01312259
2023-11-06 21:23:48.315000064,-0.06334054,0.01539436,-0.03366857,0.003226701,-0.02030688,0.01459499,-0.004358667,0.001238279,0.002755525,-0.382614266752,-0.15128976909,0.5283396584399997,-0.02801956,0.0064818,-0.01308384
2023-11-06 21:23:48.328999936,-0.06341162,0.01560819,-0.03378455,0.0026402,-0.02460546,0.01526822,-0.004594719,0.001250823,0.002693091,-0.387208985752,-0.1500389460899999,0.5310327494399998,-0.02808823,0.006508755,-0.01303574
2023-11-06 21:23:48.342999808,-0.06345751,0.01576263,-0.03394296,0.003893706,-0.02234845,0.01222648,-0.00486781,0.001523627,0.002850386,-0.392076795752,-0.14851531909,0.5338831354399998,-0.02815976,0.006545294,-0.01298301
2023-11-06 21:23:48.357000192,-0.06352489,0.01579237,-0.03389422,0.004554543,-0.01825098,0.01368443,-0.005281091,0.001664576,0.002911816,-0.397357886752,-0.1468507430899999,0.5367949514399998,-0.02827422,0.006552246,-0.01293812
2023-11-06 21:23:48.372000000,-0.06354466,0.01596275,-0.03403848,0.005880561,-0.01620475,0.01276573,-0.005936353,0.001825068,0.003102065,-0.403294239752,-0.1450256750899999,0.5398970164399998,-0.02839784,0.006574271,-0.01287876
2023-11-06 21:23:48.384999936,-0.06370437,0.01596153,-0.03409452,0.01017059,-0.01555595,0.01055213,-0.006752282,0.001691051,0.003280972,-0.410046521752,-0.1433346240899999,0.5431779884399998,-0.02851581,0.006593752,-0.01282943
2023-11-06 21:23:48.398999808,-0.06379072,0.01598445,-0.03406909,0.01193816,-0.01025448,0.008862871,-0.007055153,0.001309799,0.003756558,-0.417101674752,-0.1420248250899999,0.5469345464399997,-0.02861976,0.006601702,-0.01276368
2023-11-06 21:23:48.414000128,-0.06380947,0.01599404,-0.03403886,0.00892716,-0.007186188,0.003891617,-0.007568226,0.0008056107,0.004132323,-0.424669900752,-0.14121921439,0.5510668694399997,-0.02873044,0.006600424,-0.01270011
2023-11-06 21:23:48.427000064,-0.06369408,0.01605898,-0.03406427,-0.0006917725,-0.006860386,0.004235412,-0.008110219,0.0002931514,0.004312851,-0.432780119752,-0.14092606299,0.5553797204399997,-0.02883185,0.006593374,-0.01264353
2023-11-06 21:23:48.440999936,-0.06361997,0.01601592,-0.03407118,-0.004341219,-0.001846997,0.002693636,-0.008284956,-0.0004943166,0.00450095,-0.441065075752,-0.1414203795899999,0.5598806704399997,-0.02892707,0.006566235,-0.01258914
2023-11-06 21:23:48.456000000,-0.06348719,0.01605371,-0.03399851,-0.01004915,-0.002768752,-0.00150127,-0.008899668,-0.0007372745,0.004723159,-0.449964743752,-0.1421576540899999,0.5646038294399996,-0.02906347,0.006545024,-0.0125166
2023-11-06 21:23:48.469000192,-0.06346109,0.01606432,-0.03393859,-0.008050492,-0.002764621,-0.004786097,-0.009250019,-0.0009432441,0.004943357,-0.459214762752,-0.1431008981899999,0.5695471864399997,-0.02920068,0.006522257,-0.01244265
2023-11-06 21:23:48.484000000,-0.0634262,0.01615578,-0.03395501,-0.007364736,-0.006373195,-0.00194342,-0.009585381,-0.0007792458,0.005016907,-0.468800143752,-0.1438801439899999,0.5745640934399997,-0.02934937,0.006512707,-0.01235018
2023-11-06 21:23:48.496999936,-0.0634821,0.01615238,-0.03392315,-0.001830039,-0.0049356,-0.003059411,-0.009545203,-0.0007533418,0.005163299,-0.478345346752,-0.1446334857899999,0.5797273924399997,-0.02949477,0.006495252,-0.01224536
2023-11-06 21:23:48.510999808,-0.0635576,0.01616114,-0.03385991,0.002461696,-0.004290225,-0.005285101,-0.009434566,-0.0006710969,0.005349462,-0.487779912752,-0.1453045826899999,0.5850768544399997,-0.02963606,0.006479742,-0.01214332
2023-11-06 21:23:48.525000192,-0.06356642,0.01621786,-0.03385048,0.001324576,-0.005393887,-0.003208274,-0.009502999,-0.0004210359,0.005651586,-0.497282911752,-0.1457256185899999,0.5907284404399997,-0.02977067,0.006478683,-0.01205474
2023-11-06 21:23:48.539000064,-0.06363345,0.01627237,-0.03386628,0.00353389,-0.006008977,-0.0001223163,-0.009598374,-0.0006668511,0.005799289,-0.506881285752,-0.1463924696899999,0.5965277294399998,-0.02990733,0.006464115,-0.01196758
2023-11-06 21:23:48.552999936,-0.06355995,0.01632959,-0.03377761,-0.002139548,-0.007036951,-0.003249628,-0.009557834,-0.000698421,0.005851698,-0.516439119752,-0.1470908906899999,0.6023794274399997,-0.030014,0.006435645,-0.01189309
2023-11-06 21:23:48.566999808,-0.06338462,0.01636934,-0.03376105,-0.01156638,-0.005771112,-0.001732967,-0.009451831,-0.0006742603,0.005883209,-0.525890950752,-0.1477651509899999,0.6082626364399997,-0.0300949,0.006400953,-0.01182858
2023-11-06 21:23:48.580000000,-0.0633548,0.01642826,-0.03378391,-0.00935506,-0.006386728,0.001351621,-0.009495749,-0.001260955,0.005733166,-0.535386699752,-0.14902610599,0.6139958024399996,-0.03018835,0.006350314,-0.01176557
2023-11-06 21:23:48.594000128,-0.06325821,0.01643348,-0.03376199,-0.01013117,-0.004033211,0.0005350652,-0.009504658,-0.0008371744,0.00596095,-0.544891357752,-0.14986328039,0.6199567524399996,-0.03032122,0.006348563,-0.01167726
2023-11-06 21:23:48.608000000,-0.06325115,0.0164735,-0.03382016,-0.006713192,-0.003753532,0.00366364,-0.009594888,0.0001180795,0.006627598,-0.554486245752,-0.1497452008899999,0.6265843504399996,-0.03045757,0.006374991,-0.01156725
2023-11-06 21:23:48.621999872,-0.06336237,0.01652414,-0.0338515,0.0006833566,-0.00492239,0.004366854,-0.009744247,0.001121258,0.007306759,-0.564230492752,-0.1486239428899999,0.6338911094399996,-0.03062079,0.006400465,-0.01144673
2023-11-06 21:23:48.636000000,-0.06350562,0.01664189,-0.03390824,0.00663444,-0.009294887,0.006951215,-0.01003702,0.001553214,0.007961693,-0.5742675127519999,-0.1470707288899999,0.6418528024399996,-0.03079022,0.006420387,-0.01131232
2023-11-06 21:23:48.650000128,-0.06358404,0.0166817,-0.03388513,0.007575125,-0.009134588,0.003714833,-0.01012179,0.001500689,0.008737541,-0.584389302752,-0.1455700398899999,0.6505903434399997,-0.03093877,0.006434124,-0.01117017
2023-11-06 21:23:48.664000000,-0.06350474,0.01679817,-0.0339394,-0.0001787195,-0.01142176,0.005910467,-0.01054103,0.001469297,0.009594052,-0.5949303327519999,-0.1441007428899999,0.6601843954399996,-0.03109296,0.006456515,-0.01101033
2023-11-06 21:23:48.677999872,-0.06345648,0.01688254,-0.03397882,-0.003295025,-0.01107072,0.007129217,-0.01081384,0.001100063,0.01049242,-0.6057441727519999,-0.1430006798899999,0.6706768154399996,-0.03124401,0.006461753,-0.01084229
2023-11-06 21:23:48.692000000,-0.06341606,0.0170258,-0.03390693,-0.005122572,-0.01469847,0.00254645,-0.01129383,0.0009062797,0.01148684,-0.6170380027519998,-0.1420944001899999,0.6821636554399996,-0.03138778,0.006447349,-0.01067237
2023-11-06 21:23:48.706000128,-0.06344961,0.01713139,-0.03386371,-0.002044953,-0.01494895,0.0002641715,-0.01156232,0.0002617409,0.01259713,-0.6286003227519998,-0.1418326592899999,0.6947607854399995,-0.03153281,0.006416142,-0.0104854
2023-11-06 21:23:48.720000000,-0.06334999,0.01731133,-0.03378363,-0.007069259,-0.01947921,-0.00107013,-0.01209345,2.72959e-06,0.01403018,-0.6406937727519998,-0.1418299296999999,0.7087909654399995,-0.03170945,0.006401644,-0.01024954
2023-11-06 21:23:48.733999872,-0.06332299,0.0175752,-0.03369622,-0.003602808,-0.02543927,-0.0007167483,-0.01255671,-0.0004427732,0.01589531,-0.6532504827519998,-0.1422727028999999,0.7246862754399995,-0.03191603,0.006409581,-0.009898193
2023-11-06 21:23:48.747000064,-0.06341725,0.01772135,-0.03357223,-0.003066794,-0.02716933,-0.006268304,-0.01291268,-0.0005185783,0.01777723,-0.6661631627519998,-0.1427912811999999,0.7424635054399995,-0.03208317,0.006348224,-0.009607582
2023-11-06 21:23:48.760999936,-0.06336371,0.01801401,-0.03340312,-0.004770641,-0.02827745,-0.0149016,-0.013339,-0.001215085,0.01993788,-0.6795021627519998,-0.1440063661999999,0.7624013854399995,-0.03233846,0.006283389,-0.009280744
2023-11-06 21:23:48.775000064,-0.06309599,0.01816076,-0.03322807,-0.01379304,-0.03125427,-0.01485245,-0.01411279,-0.002030477,0.02202877,-0.6936149527519998,-0.1460368431999999,0.7844301554399995,-0.03255226,0.006240913,-0.008909465
2023-11-06 21:23:48.788999936,-0.06295684,0.01833564,-0.03317939,-0.02129988,-0.02511694,-0.01070608,-0.01407666,-0.002905277,0.02430022,-0.7076916127519998,-0.1489421201999999,0.8087303754399995,-0.03276905,0.006152534,-0.008532258
2023-11-06 21:23:48.803000064,-0.06267559,0.01859245,-0.03324908,-0.02853154,-0.02721489,0.0001211538,-0.01443902,-0.003878365,0.02612895,-0.7221306327519997,-0.1528204851999999,0.8348593254399995,-0.03297605,0.006075794,-0.008123923
2023-11-06 21:23:48.816999936,-0.06227578,0.01882565,-0.03340833,-0.04060498,-0.02668863,0.01357078,-0.01482623,-0.004530866,0.02793744,-0.7369568627519998,-0.1573513511999999,0.8627967654399995,-0.03317001,0.006015447,-0.007703531
2023-11-06 21:23:48.831000064,-0.06178803,0.01900527,-0.03346246,-0.05191527,-0.02420474,0.01645534,-0.01514467,-0.005055515,0.02955552,-0.7521015327519998,-0.1624068661999999,0.8923522854399994,-0.03335488,0.005934329,-0.007289449
2023-11-06 21:23:48.844000000,-0.06151261,0.01927117,-0.03351933,-0.05531473,-0.0245687,0.01444272,-0.01550557,-0.005073893,0.03115106,-0.7676071027519997,-0.1674807591999999,0.9235033454399996,-0.03356162,0.005853533,-0.00683713
2023-11-06 21:23:48.858000128,-0.0610045,0.01948816,-0.03366803,-0.05113468,-0.02656137,0.01724211,-0.01590811,-0.005287413,0.03255599,-0.7835152127519998,-0.1727681721999999,0.9560593354399994,-0.03377806,0.005847586,-0.006319703
2023-11-06 21:23:48.872000000,-0.06084093,0.01996833,-0.0337541,-0.04950414,-0.03138937,0.01993223,-0.01634124,-0.005387406,0.03384291,-0.7998564527519998,-0.1781555781999999,0.9899022454399994,-0.03404041,0.005729158,-0.005820754
2023-11-06 21:23:48.887000064,-0.06042636,0.02032137,-0.03386559,-0.05431044,-0.03928037,0.03005119,-0.01661871,-0.005388357,0.03511082,-0.8164751627519998,-0.1835439351999999,1.0250130654399994,-0.03422116,0.005695607,-0.005258287
2023-11-06 21:23:48.900000000,-0.06000402,0.0207639,-0.03405878,-0.05610999,-0.04588272,0.03371179,-0.01682235,-0.005601391,0.03619644,-0.8332975127519998,-0.1891453261999999,1.0612095054399997,-0.0343919,0.005672737,-0.004656997
2023-11-06 21:23:48.914000128,-0.05968598,0.02122068,-0.03406021,-0.05687341,-0.05114782,0.03318674,-0.01705227,-0.005942053,0.03714294,-0.8503497827519998,-0.1950873791999999,1.0983524454399995,-0.03461032,0.005612937,-0.004050972
2023-11-06 21:23:48.928000000,-0.05942368,0.02186278,-0.03425135,-0.0555682,-0.05666869,0.03254979,-0.01742141,-0.006294639,0.03808397,-0.8677711927519998,-0.2013820181999999,1.1364364154399995,-0.03487853,0.005508027,-0.003478662
2023-11-06 21:23:48.941999872,-0.05896857,0.02234548,-0.03435487,-0.05903586,-0.06320146,0.02765679,-0.01808124,-0.006194627,0.03886032,-0.8858524327519998,-0.2075766451999999,1.1752967354399997,-0.03511537,0.005452869,-0.002890394
2023-11-06 21:23:48.956000000,-0.05849509,0.0230433,-0.03442439,-0.06063491,-0.06879693,0.03141384,-0.01879651,-0.006284554,0.03938479,-0.9046489427519998,-0.2138611991999999,1.2146815254399994,-0.03540221,0.005402293,-0.002329524
2023-11-06 21:23:48.970000128,-0.05824662,0.02351668,-0.03451493,-0.05877931,-0.06859718,0.02704886,-0.0194845,-0.006181081,0.04007417,-0.9241334427519998,-0.2200422801999999,1.2547556954399994,-0.03565632,0.005318804,-0.001759102
2023-11-06 21:23:48.984000000,-0.05795933,0.02405667,-0.03451134,-0.05451978,-0.07068181,0.02979819,-0.02026971,-0.00575935,0.04075242,-0.9444031527519998,-0.2258016301999999,1.2955081154399994,-0.03594217,0.005270232,-0.001149044
2023-11-06 21:23:48.997999872,-0.05763537,0.02469265,-0.03457847,-0.0519186,-0.07417131,0.02815097,-0.02125466,-0.004807169,0.04138956,-0.9656578127519998,-0.2306087991999999,1.3368976754399997,-0.03627184,0.005232553,-0.0005253474
2023-11-06 21:23:49.010999808,-0.05758108,0.02535677,-0.03450283,-0.04384607,-0.07610277,0.02425107,-0.02216233,-0.004699774,0.04184858,-0.9878201427519998,-0.2353085731999999,1.3787462554399994,-0.03663909,0.005136518,9.41921e-05
2023-11-06 21:23:49.026000128,-0.05709987,0.02575111,-0.03452718,-0.05010189,-0.07386975,0.0227185,-0.02287727,-0.004271625,0.04230376,-1.010697412752,-0.2395801981999999,1.4210500154399994,-0.03691944,0.005098094,0.0007292068
2023-11-06 21:23:49.040000000,-0.05682004,0.02638873,-0.03436434,-0.05357921,-0.07366147,0.00684838,-0.02385428,-0.004326502,0.04250722,-1.0345516927519998,-0.2439067001999999,1.4635572354399995,-0.03730354,0.004995241,0.001362228
2023-11-06 21:23:49.052999936,-0.05632374,0.0268119,-0.03423693,-0.05991305,-0.07260168,0.006302335,-0.02468268,-0.005017168,0.04256796,-1.0592343727519995,-0.2489238681999999,1.5061251954399997,-0.0376293,0.004916639,0.001986973
2023-11-06 21:23:49.068000000,-0.05581969,0.02739933,-0.03426383,-0.0649998,-0.07075106,0.006898415,-0.02543452,-0.005695462,0.04247115,-1.0846688927519996,-0.2546193301999999,1.5485963454399994,-0.03801943,0.0048459,0.002605989
2023-11-06 21:23:49.081000192,-0.05545301,0.02784324,-0.03383206,-0.0681238,-0.07122222,-0.003704204,-0.02623099,-0.006090789,0.04216083,-1.1108998827519996,-0.2607101191999999,1.5907571754399994,-0.03838351,0.004714946,0.003207956
2023-11-06 21:23:49.095000064,-0.05508458,0.02833173,-0.03348013,-0.06783819,-0.067358,-0.01830191,-0.02695736,-0.006190489,0.04194736,-1.1378572427519995,-0.2669006081999999,1.6327045354399994,-0.03880747,0.004632086,0.003799008
2023-11-06 21:23:49.108999936,-0.05489706,0.02859911,-0.03318588,-0.06022736,-0.06093188,-0.02773799,-0.02746224,-0.006450186,0.04167584,-1.1653194827519997,-0.2733507941999999,1.6743803754399993,-0.03917986,0.004499194,0.004352194
2023-11-06 21:23:49.122999808,-0.05458184,0.0288327,-0.0327782,-0.05575682,-0.05535367,-0.03491732,-0.02767136,-0.006493228,0.04150976,-1.1929908427519995,-0.2798440222,1.7158901354399994,-0.03953096,0.00438453,0.004948819
2023-11-06 21:23:49.136000000,-0.05432085,0.02906966,-0.03225018,-0.05095869,-0.04902334,-0.03983726,-0.02740008,-0.006857787,0.0413675,-1.2203909227519996,-0.2867018092,1.7572576354399994,-0.03991889,0.004258985,0.005544632
2023-11-06 21:23:49.152000000,-0.05411275,0.02927402,-0.03207498,-0.04811543,-0.0390137,-0.03652073,-0.02674582,-0.00744345,0.04121619,-1.2471367427519997,-0.2941452592,1.7984738254399997,-0.0402839,0.004097613,0.006107201
2023-11-06 21:23:49.164999936,-0.05357229,0.02933747,-0.03176574,-0.05267454,-0.03406545,-0.03551172,-0.02645684,-0.007833497,0.04094017,-1.2735935827519995,-0.3019787562,1.8394139954399995,-0.04061273,0.003989487,0.006686814
2023-11-06 21:23:49.177999872,-0.05314641,0.02940917,-0.03169059,-0.05822023,-0.02284078,-0.03132137,-0.0254028,-0.008141189,0.04068738,-1.2989963827519997,-0.3101199452,1.88010137544,-0.04093841,0.003838688,0.007236087
2023-11-06 21:23:49.193000192,-0.05276344,0.02946121,-0.03133017,-0.06143056,-0.01601786,-0.03007438,-0.02437051,-0.008248826,0.04015006,-1.3233668927519997,-0.3183687712,1.9202514354399995,-0.0412655,0.003695605,0.007767291
2023-11-06 21:23:49.206000128,-0.05229012,0.02942416,-0.03122424,-0.06372968,-0.006778637,-0.02315444,-0.02309673,-0.008070251,0.03944786,-1.3464636227519995,-0.3264390222,1.95969929544,-0.04155064,0.00359663,0.008293502
2023-11-06 21:23:49.220000000,-0.05183981,0.02938518,-0.03115167,-0.06353079,-0.002169411,-0.01710499,-0.02184954,-0.007752078,0.03845127,-1.3683131627519995,-0.3341911002,1.99815056544,-0.04181064,0.003478016,0.008796019
2023-11-06 21:23:49.233999872,-0.05151856,0.02936128,-0.03111525,-0.06255554,0.002747497,-0.01429761,-0.02043299,-0.007007715,0.03747915,-1.3887461527519995,-0.3411988152,2.03562971544,-0.04203872,0.003383094,0.009250889
2023-11-06 21:23:49.248000000,-0.05123711,0.02944431,-0.03103949,-0.05215773,0.00634491,-0.012449,-0.0188189,-0.006446426,0.03650448,-1.4075650527519996,-0.3476452412,2.0721341954399994,-0.04229744,0.003321685,0.009718225
2023-11-06 21:23:49.262000128,-0.05122252,0.02933192,-0.0308322,-0.0397806,0.006253899,-0.01785734,-0.01714461,-0.005561894,0.03558423,-1.4247096627519995,-0.3532071352,2.1077184254399994,-0.04248726,0.003215785,0.01018415
2023-11-06 21:23:49.276000000,-0.05112555,0.0294379,-0.03080096,-0.0269934,0.001489471,-0.01315211,-0.01559427,-0.004877045,0.03472258,-1.4403039327519995,-0.3580841802,2.1424410054399994,-0.0426799,0.003186099,0.01065915
2023-11-06 21:23:49.288999936,-0.05102234,0.02938491,-0.03079825,-0.01617487,0.0007796716,-0.01201717,-0.01389051,-0.004275242,0.03401786,-1.4541944427519995,-0.3623594222,2.1764588654399994,-0.04286499,0.003161014,0.01114247
2023-11-06 21:23:49.304000000,-0.05097783,0.02933282,-0.03070873,-0.01226892,0.001631038,-0.006802639,-0.01214338,-0.004157167,0.0332527,-1.4663378227519994,-0.3665165892000001,2.2097115654399992,-0.04301678,0.00309423,0.01160586
2023-11-06 21:23:49.318000128,-0.05082631,0.02937329,-0.03069025,-0.01555037,-0.0003433133,-0.004656668,-0.01056012,-0.004139991,0.03246265,-1.4768979427519997,-0.3706565802000001,2.242174215439999,-0.04318292,0.003033794,0.0120353
2023-11-06 21:23:49.331000064,-0.05048169,0.02935663,-0.03069228,-0.02471533,0.0004658941,-0.0005067736,-0.00899614,-0.004335367,0.03173268,-1.4858940827519995,-0.3749919472,2.2739068954399992,-0.04323992,0.002988502,0.01247675
2023-11-06 21:23:49.344999936,-0.05022414,0.02939522,-0.03079361,-0.02926403,0.001255998,0.006508414,-0.007564443,-0.004704713,0.03095115,-1.4934585257519994,-0.3796966602000001,2.304858045439999,-0.04332871,0.002925634,0.0128818
2023-11-06 21:23:49.359000064,-0.0499526,0.02941564,-0.03084395,-0.03557097,0.003490955,0.005225035,-0.006242111,-0.004263497,0.03012796,-1.4997006367519994,-0.3839601572000001,2.33498600544,-0.04337964,0.002903569,0.0132719
2023-11-06 21:23:49.372999936,-0.04978149,0.02934363,-0.03083612,-0.03138083,0.002912074,0.004771526,-0.005094666,-0.003840273,0.02934921,-1.5047953027519994,-0.3878004302000001,2.3643352154399992,-0.04339745,0.002914583,0.01366374
2023-11-06 21:23:49.387000064,-0.0497009,0.02942291,-0.03097825,-0.02443712,0.004859703,0.006666508,-0.003877535,-0.003075978,0.0287917,-1.5086728377519991,-0.3908764082000001,2.3931269154399994,-0.04345946,0.002903625,0.01404803
2023-11-06 21:23:49.400000000,-0.04966469,0.02931604,-0.0310566,-0.01515558,0.007380785,0.009525992,-0.002863146,-0.002907948,0.02812945,-1.5115359837519993,-0.3937843562000001,2.42125636544,-0.04346019,0.002857144,0.0144057
2023-11-06 21:23:49.415000064,-0.04953175,0.02923211,-0.0311512,-0.01693406,0.009756198,0.01004431,-0.001853581,-0.002452173,0.02757405,-1.5133895647519993,-0.3962365292000001,2.44883041544,-0.04346999,0.002830613,0.01478942
2023-11-06 21:23:49.428000000,-0.04947405,0.0292182,-0.03131455,-0.01529913,0.01120385,0.01338987,-0.0009994684,-0.002812678,0.02666254,-1.5143890331519994,-0.3990492072000001,2.47549295544,-0.04352473,0.002785408,0.01516428
2023-11-06 21:23:49.443000064,-0.04916805,0.02912486,-0.03141172,-0.01827078,0.01129617,0.01582713,-0.0002690069,-0.003174129,0.02560734,-1.514658040051999,-0.4022233362000001,2.50110029544,-0.04354036,0.002777756,0.01553192
2023-11-06 21:23:49.456000000,-0.04895647,0.02907577,-0.03141971,-0.02449992,0.01474821,0.0136478,0.0007774411,-0.00358187,0.02447482,-1.5138805989519992,-0.4058052062000001,2.52557511544,-0.04354041,0.002719828,0.01585115
2023-11-06 21:23:49.470000128,-0.04864601,0.02903283,-0.03153607,-0.02910672,0.01479812,0.01079065,0.001505012,-0.003712573,0.02321875,-1.5123755869519993,-0.4095177792000001,2.5487938654399995,-0.04349108,0.002683961,0.01614197
2023-11-06 21:23:49.484000000,-0.0484989,0.02896497,-0.03162926,-0.0287023,0.0104857,0.01005282,0.002197431,-0.004027077,0.02181103,-1.5101781559519991,-0.4135448562000001,2.57060489544,-0.04341028,0.00261019,0.01639848
2023-11-06 21:23:49.497999872,-0.04826503,0.02881354,-0.03151466,-0.02759011,0.01152975,0.009042569,0.00333104,-0.004162601,0.02037709,-1.5068471159519994,-0.4177074572000001,2.59098198544,-0.04330803,0.002551648,0.01664611
2023-11-06 21:23:49.512000000,-0.04821683,0.0289613,-0.03160684,-0.02580691,0.009165246,0.008526179,0.004355168,-0.004085573,0.01897383,-1.5024919479519994,-0.4217930302000001,2.60995581544,-0.04325912,0.002459969,0.01690564
2023-11-06 21:23:49.526000128,-0.04793629,0.02895504,-0.03165931,-0.02403276,0.006788161,0.007997192,0.005355371,-0.003801572,0.01756239,-1.4971365769519993,-0.4255946022,2.62751820544,-0.0431619,0.002415677,0.01711868
2023-11-06 21:23:49.539000064,-0.04791537,0.028907,-0.03172589,-0.01904977,0.006579135,0.00429533,0.006415185,-0.003861069,0.01610585,-1.4907213919519993,-0.4294556712,2.64362405544,-0.04304925,0.002363766,0.01730588
2023-11-06 21:23:49.553999872,-0.04784842,0.02890626,-0.03168528,-0.01630952,0.002840172,0.004536889,0.007137153,-0.00347237,0.01450874,-1.483584238951999,-0.4329280412,2.6581327954400003,-0.04296884,0.002358333,0.01751271
2023-11-06 21:23:49.568000000,-0.04776024,0.02897412,-0.03174501,-0.01444148,-0.001093596,0.006994385,0.00769115,-0.003073125,0.01306336,-1.4758930889519992,-0.4360011662,2.67119615544,-0.04288349,0.002367973,0.01770992
2023-11-06 21:23:49.582000128,-0.04771084,0.02904448,-0.03185666,-0.01103231,-0.003440585,0.01175731,0.008492074,-0.003025163,0.01156312,-1.4674010149519991,-0.4390263292,2.68275927544,-0.04276367,0.002353649,0.01786334
2023-11-06 21:23:49.595000064,-0.04761198,0.0291402,-0.03178113,-0.01235343,-0.007603653,0.0046635,0.009141125,-0.002306208,0.01010689,-1.4582598899519992,-0.4413325372,2.69286616544,-0.0426217,0.002334717,0.01797712
2023-11-06 21:23:49.608999936,-0.04762436,0.02917317,-0.0316825,-0.005696321,-0.008634401,-0.002566871,0.009931419,-0.001908625,0.008764751,-1.4483284709519992,-0.4432411622,2.70163091644,-0.04246143,0.002313698,0.01807714
2023-11-06 21:23:49.622999808,-0.04758583,0.02928406,-0.03169714,-0.00769542,-0.00990389,0.0006446097,0.01067159,-0.001151861,0.007553888,-1.4376568809519992,-0.4443930232,2.70918480444,-0.04226939,0.002293381,0.01819443
2023-11-06 21:23:49.637000192,-0.04767443,0.02938297,-0.03173029,-0.000103138,-0.0114539,0.00301982,0.01167525,-0.0008695994,0.006330654,-1.4259816309519993,-0.4452626226,2.71551545844,-0.04205941,0.002272529,0.01829395
2023-11-06 21:23:49.652000000,-0.04770209,0.02954233,-0.03175781,0.0006323639,-0.01507051,0.004530539,0.01243377,-1.278271e-05,0.004964173,-1.4135478609519994,-0.44527540531,2.72047963144,-0.04186249,0.002288112,0.01835071
2023-11-06 21:23:49.664999936,-0.04760221,0.02979431,-0.03193816,0.001508735,-0.01681996,0.01501833,0.012896,0.0004987337,0.003733679,-1.4006518609519991,-0.44477667161,2.72421331044,-0.04167248,0.002317568,0.01839103
2023-11-06 21:23:49.678999808,-0.04772016,0.02984625,-0.03184731,0.0009233288,-0.01836225,0.01156196,0.01328863,0.001361569,0.002450355,-1.3873632309519994,-0.44341510261,2.7266636654400003,-0.04147542,0.002350216,0.01842547
2023-11-06 21:23:49.692000000,-0.04788485,0.02995756,-0.03187358,0.007705337,-0.01696071,0.002538588,0.01362481,0.001985061,0.001250658,-1.3737384209519994,-0.44143004161,2.7279143234400003,-0.0412624,0.00239323,0.01850639
2023-11-06 21:23:49.706000128,-0.04794595,0.03012523,-0.03176317,0.007911237,-0.019533,-0.002250251,0.01343015,0.002929742,2.789777e-05,-1.3603082709519994,-0.43850029961,2.72794222121,-0.04106458,0.002448809,0.01857062
2023-11-06 21:23:49.720000000,-0.04816803,0.03015757,-0.03171008,0.01634675,-0.0181124,-0.005986671,0.01354531,0.003247614,-0.001249136,-1.346762960951999,-0.4352526856099999,2.72669308521,-0.04087273,0.002498815,0.01853275
2023-11-06 21:23:49.733999872,-0.04837767,0.03016949,-0.03162912,0.01703723,-0.01757219,-0.01028794,0.01344112,0.004084016,-0.002530934,-1.3333218409519991,-0.4311686696099999,2.72416215121,-0.0406868,0.002570212,0.01846849
2023-11-06 21:23:49.748000000,-0.04858782,0.03022063,-0.03164405,0.0238416,-0.01050118,-0.006456548,0.01369554,0.004208731,-0.003535846,-1.3196263009519993,-0.4269599386099999,2.72062630521,-0.04047907,0.002628084,0.01840348
2023-11-06 21:23:49.762000128,-0.04880908,0.03020346,-0.03177876,0.0262063,-0.003717997,-0.003380334,0.01381232,0.004377967,-0.004404608,-1.3058139809519993,-0.4225819716099999,2.7162216972099995,-0.04023005,0.002680755,0.01834579
2023-11-06 21:23:49.776000000,-0.04904138,0.03008413,-0.03169578,0.02981972,0.0003506759,-0.005196244,0.01370645,0.004420913,-0.005312417,-1.2921075309519994,-0.4181610586099999,2.71090928021,-0.03999051,0.002717173,0.01826746
2023-11-06 21:23:49.788999936,-0.0491835,0.02989706,-0.03165938,0.03200523,0.007498007,-0.00421953,0.01375934,0.004254726,-0.006088602,-1.2783481909519994,-0.4139063326099999,2.7048206782099995,-0.03978745,0.002765619,0.01815874
2023-11-06 21:23:49.804000000,-0.04940404,0.02972999,-0.03180656,0.03276585,0.01010224,-0.000597909,0.01361492,0.003989147,-0.006892179,-1.2647332709519994,-0.4099171856099999,2.69792849921,-0.03960089,0.002824595,0.01803342
2023-11-06 21:23:49.819000064,-0.04967629,0.02958223,-0.03190564,0.03217729,0.01564859,0.006841442,0.01369427,0.003617882,-0.007412647,-1.2510390009519994,-0.4062993036099999,2.6905158522099994,-0.03941967,0.002863904,0.01796
2023-11-06 21:23:49.832000000,-0.04973937,0.02945572,-0.03205857,0.02882101,0.02006367,0.01000208,0.01387002,0.0034477,-0.007621473,-1.2371689809519997,-0.4028516036099999,2.6828943792099995,-0.03924197,0.002900696,0.01792625
2023-11-06 21:23:49.845999872,-0.04993467,0.0292815,-0.03211335,0.02768223,0.02038277,0.009063326,0.01399901,0.002959267,-0.008022216,-1.2231699709519994,-0.3998923366099999,2.6748721632099994,-0.03906051,0.002919896,0.0178612
2023-11-06 21:23:49.859000064,-0.05007971,0.02925819,-0.03208791,0.02613167,0.01878547,0.006761812,0.01405618,0.002384885,-0.008658634,-1.2091137909519991,-0.3975074516099999,2.66621352921,-0.03886338,0.002937853,0.01772502
2023-11-06 21:23:49.872999936,-0.0501301,0.02893141,-0.03214917,0.01982352,0.02241824,0.00353461,0.01440329,0.002087197,-0.009219648,-1.1947105009519994,-0.3954202546099999,2.656993881209999,-0.03865465,0.002961826,0.01756443
2023-11-06 21:23:49.887000064,-0.05025513,0.0288257,-0.03217613,0.0185342,0.02168309,0.00243691,0.01472861,0.001477452,-0.009485824,-1.1799818909519997,-0.3939428026099999,2.647508057209999,-0.03845792,0.002931817,0.01746342
2023-11-06 21:23:49.900999936,-0.05037368,0.0286358,-0.03236807,0.01783573,0.02117114,0.00675354,0.01497073,0.0007080938,-0.009890597,-1.1650111609519995,-0.3932347088099999,2.637617460209999,-0.03826439,0.00288472,0.01736272
2023-11-06 21:23:49.915000064,-0.05042036,0.02859753,-0.03257374,0.01457996,0.02134046,0.0167941,0.01541431,-5.775248e-06,-0.01010175,-1.1495968509519996,-0.3932404840579999,2.627515710209999,-0.03805403,0.002847043,0.01725319
2023-11-06 21:23:49.928999936,-0.05034175,0.02843362,-0.03271506,0.01069336,0.01914627,0.01352813,0.01567973,-0.0006525015,-0.01066324,-1.1339171209519996,-0.3938929855579999,2.616852470209999,-0.03782947,0.002831516,0.01708163
2023-11-06 21:23:49.943000064,-0.05024412,0.02826402,-0.03284746,0.002635841,0.02380411,0.01272149,0.01616442,-0.001147934,-0.01098753,-1.1177527009519996,-0.3950409195579999,2.605864940209999,-0.03759273,0.002812303,0.01692174
2023-11-06 21:23:49.956000000,-0.05016661,0.02808088,-0.03294446,-0.001559084,0.02303986,0.01510265,0.01601862,-0.001742784,-0.01149056,-1.1017340809519995,-0.3967837035579999,2.594374380209999,-0.03738256,0.00278411,0.01684021
2023-11-06 21:23:49.970000128,-0.05008438,0.02787063,-0.03312017,-0.005668255,0.02348419,0.01657355,0.01618042,-0.001920343,-0.01198846,-1.0855536609519996,-0.3987040465579999,2.5823859202099992,-0.03712505,0.0027572,0.016732
2023-11-06 21:23:49.984999936,-0.04991468,0.02774402,-0.03322492,-0.006860604,0.02745347,0.02054784,0.0166441,-0.001774121,-0.0127453,-1.0689095609519996,-0.400478167558,2.569640620209999,-0.03691711,0.002791646,0.01655202
2023-11-06 21:23:49.997999872,-0.04994928,0.02767587,-0.03347236,-0.00490507,0.02748496,0.01823006,0.01659381,-0.001301531,-0.01376713,-1.0523157509519996,-0.401779698558,2.555873490209999,-0.03671657,0.002771247,0.01630945
2023-11-06 21:23:50.012000000,-0.0499452,0.02731588,-0.03369098,-0.003631413,0.02683748,0.02127114,0.01647079,-0.0005830188,-0.01473853,-1.0358449609519995,-0.402362717358,2.541134960209999,-0.03642924,0.002790826,0.01609458
2023-11-06 21:23:50.026000128,-0.04993461,0.02720153,-0.03370574,0.005499629,0.03096777,0.02016323,0.01668121,-0.0002902466,-0.01562928,-1.0191637509519995,-0.402652963958,2.525505680209999,-0.03622149,0.002816519,0.01587467
2023-11-06 21:23:50.039000064,-0.05015348,0.02699634,-0.03388612,0.009631766,0.03189276,0.01673141,0.01672629,0.0003681234,-0.0163926,-1.0024374609519997,-0.402284840558,2.509113080209999,-0.03597592,0.002793328,0.01565653
2023-11-06 21:23:50.053999872,-0.05021081,0.02680606,-0.03410075,0.01405623,0.03077641,0.01949076,0.01681503,0.001101912,-0.01732235,-0.9856224309519996,-0.401182928558,2.491790730209998,-0.0357329,0.002839144,0.01540077
2023-11-06 21:23:50.066999808,-0.05048975,0.02668124,-0.03423297,0.0192969,0.03000879,0.01897035,0.01681102,0.001372281,-0.01823461,-0.9688114109519996,-0.399810647558,2.4735561202099987,-0.03552699,0.002833014,0.01510709
2023-11-06 21:23:50.082000128,-0.05059603,0.02632165,-0.03430972,0.02209122,0.0288307,0.0164368,0.01669124,0.001389773,-0.01909008,-0.9521201709519996,-0.398420874558,2.454466040209999,-0.03524407,0.002864184,0.01488077
2023-11-06 21:23:50.096000000,-0.05073789,0.02613774,-0.03463323,0.02133311,0.03121685,0.01577205,0.01674491,0.001540672,-0.01960913,-0.9353752609519996,-0.396880202558,2.434856910209999,-0.03498047,0.002880179,0.01472864
2023-11-06 21:23:50.108999936,-0.05081286,0.02606955,-0.03469997,0.02289184,0.02641549,0.01709545,0.01633323,0.001582182,-0.02011495,-0.9190420309519995,-0.395298020558,2.414741960209999,-0.03475436,0.002940298,0.01455966
2023-11-06 21:23:50.122999808,-0.05101327,0.02588457,-0.03502335,0.02500353,0.02608446,0.01690089,0.01627626,0.001937109,-0.02073542,-0.9027657709519996,-0.393360911558,2.394006540209999,-0.03452512,0.002984034,0.01425413
2023-11-06 21:23:50.138000128,-0.05111412,0.02581444,-0.03502676,0.02741611,0.02296632,0.01301711,0.01610462,0.002418173,-0.02116723,-0.8866611509519995,-0.390942738558,2.372839310209999,-0.0343239,0.003068602,0.01396067
2023-11-06 21:23:50.152000000,-0.05131073,0.02561224,-0.03523595,0.02907454,0.01935158,0.01345099,0.01599143,0.002813963,-0.02151761,-0.8706697209519995,-0.388128775558,2.351321700209999,-0.03405736,0.003102868,0.01367044
2023-11-06 21:23:50.164000000,-0.05168089,0.02557355,-0.03519215,0.03284591,0.01681013,0.01171183,0.01592995,0.00294082,-0.02184103,-0.8547397709519995,-0.385187955558,2.329480670209999,-0.03387441,0.003110715,0.01340817
2023-11-06 21:23:50.177999872,-0.05176895,0.02546743,-0.03520904,0.03181154,0.01342963,0.005877011,0.01562898,0.003322467,-0.0219728,-0.8391107909519995,-0.381865488558,2.307507870209999,-0.0336696,0.00320268,0.01316783
2023-11-06 21:23:50.192000000,-0.05210962,0.02540416,-0.03530927,0.03299867,0.01295753,0.007880695,0.01544875,0.003508903,-0.02209484,-0.8236620409519995,-0.378356585558,2.285413030209999,-0.03347134,0.003218123,0.01284196
2023-11-06 21:23:50.206000128,-0.0523836,0.0253576,-0.03535213,0.03660386,0.009346103,0.006028531,0.01501056,0.003574723,-0.02228603,-0.8086514809519995,-0.374781862558,2.263127000209999,-0.03327386,0.00328121,0.01252689
2023-11-06 21:23:50.220000000,-0.05255601,0.02529266,-0.03535803,0.03844712,0.008143246,0.004652812,0.0148012,0.003466327,-0.02202895,-0.7938502809519995,-0.371315535558,2.241098050209999,-0.0330345,0.00335142,0.01233738
2023-11-06 21:23:50.233999872,-0.0529068,0.02517903,-0.03541904,0.03715946,0.007415965,0.003552845,0.01455313,0.003106574,-0.0217618,-0.7792971509519995,-0.3682089615580001,2.2193362502099987,-0.03276275,0.003347285,0.01216229
2023-11-06 21:23:50.249999872,-0.05292429,0.02509108,-0.03536951,0.03242151,0.006440344,0.000484261,0.01428035,0.002632028,-0.02150056,-0.7650168009519994,-0.3655769335580001,2.197835690209999,-0.03252497,0.003414574,0.01197842
2023-11-06 21:23:50.262000128,-0.05315227,0.02506578,-0.03554196,0.02701662,0.006189313,0.0007937077,0.0136853,0.002181577,-0.02142379,-0.7513315009519994,-0.3633953565580001,2.176411900209999,-0.03236381,0.00340138,0.01166393
2023-11-06 21:23:50.275000064,-0.05327517,0.02497289,-0.03546105,0.02541087,0.01113235,-0.001644433,0.01343345,0.001938444,-0.02116407,-0.7378980509519995,-0.3614569125580001,2.1552478302099987,-0.0322051,0.003442474,0.01138309
2023-11-06 21:23:50.288999936,-0.05337053,0.02485853,-0.03534801,0.02527268,0.01144311,-0.003749149,0.01296877,0.001667826,-0.02072262,-0.7249292809519995,-0.3597890865580001,2.1345252102099987,-0.03200559,0.003469079,0.01116101
2023-11-06 21:23:50.304000000,-0.0536596,0.02475962,-0.03523984,0.02611626,0.01173479,-0.007009965,0.01235847,0.001583737,-0.02041414,-0.7125708109519995,-0.3582053495580001,2.1141110702099986,-0.03183182,0.003464761,0.01091661
2023-11-06 21:23:50.316999936,-0.05390183,0.02450901,-0.03524898,0.03096878,0.01674067,-0.009841735,0.01190081,0.00154609,-0.01996895,-0.7006700009519995,-0.3566592595580001,2.0941421202099986,-0.03164302,0.003476541,0.01066298
2023-11-06 21:23:50.331000064,-0.05411183,0.02425814,-0.03520041,0.03118325,0.01911967,-0.0116723,0.01143163,0.001798661,-0.01967934,-0.6892383709519995,-0.3548605985580002,2.0744627802099984,-0.03147652,0.003510752,0.01037342
2023-11-06 21:23:50.344999936,-0.054294,0.02400854,-0.03519808,0.0312628,0.02672253,-0.01169421,0.01147249,0.001794827,-0.01926071,-0.6777658809519995,-0.3530657715580002,2.0552020702099982,-0.03132706,0.00350679,0.01011108
2023-11-06 21:23:50.359000064,-0.05435229,0.02381209,-0.03509516,0.02939347,0.02795358,-0.01032112,0.01114888,0.001520935,-0.01861817,-0.6666170009519995,-0.3515448365580002,2.0365839002099984,-0.03115859,0.00352624,0.009983055
2023-11-06 21:23:50.372999936,-0.05442069,0.02353898,-0.03523843,0.02423822,0.02859495,-0.00882645,0.01085489,0.001217586,-0.01799029,-0.6557621109519995,-0.3503272505580002,2.018593610209998,-0.03095707,0.003511155,0.009833711
2023-11-06 21:23:50.387000064,-0.05450087,0.02325708,-0.03515199,0.02100585,0.03417135,-0.005708862,0.01095294,0.0008398991,-0.01749431,-0.6448091709519995,-0.3494873514580002,2.001099300209998,-0.0308053,0.003514535,0.009611611
2023-11-06 21:23:50.400999936,-0.05460809,0.02300158,-0.03528089,0.02003583,0.03417743,-0.004567817,0.01079676,0.0007626748,-0.01711591,-0.6340124109519996,-0.3487246766580002,1.983983390209998,-0.03064598,0.003550314,0.009377395
2023-11-06 21:23:50.415000064,-0.05487232,0.02272904,-0.03519543,0.02276124,0.03321271,-0.009185527,0.01096658,0.001183501,-0.01659511,-0.6230458309519996,-0.3475411756580002,1.9673882802099985,-0.03043985,0.0035022,0.009105004
2023-11-06 21:23:50.428999936,-0.05518763,0.02253893,-0.03510083,0.03284243,0.0296702,-0.01131922,0.01103617,0.001365464,-0.01573433,-0.6120096609519996,-0.3461757116580002,1.9516539502099983,-0.03022421,0.003477158,0.00888468
2023-11-06 21:23:50.441999872,-0.05547429,0.02237502,-0.03522037,0.03623435,0.02860667,-0.007341472,0.01099429,0.001623121,-0.01476595,-0.6010153709519996,-0.3445525906580002,1.9368880002099984,-0.03005111,0.003497877,0.008686556
2023-11-06 21:23:50.456999936,-0.05573757,0.02221194,-0.03531492,0.0376326,0.02905747,-0.004129618,0.01123017,0.001816996,-0.01370372,-0.5897852009519996,-0.3427355946580002,1.9231842802099983,-0.02988952,0.003532163,0.008508218
2023-11-06 21:23:50.471000064,-0.05578959,0.02187937,-0.03543354,0.03587415,0.02854222,0.002393762,0.01137124,0.001051847,-0.01291628,-0.5784139609519996,-0.3416837476580002,1.9102680002099983,-0.02973467,0.00354256,0.008336546
2023-11-06 21:23:50.484999936,-0.05575585,0.02172616,-0.03581778,0.02144326,0.02875127,0.0107441,0.01108619,0.0001182809,-0.01214131,-0.5673277709519996,-0.3415654667580002,1.8981266902099985,-0.02962134,0.003582909,0.008237035
2023-11-06 21:23:50.497999872,-0.05558253,0.02158481,-0.03560995,0.005852089,0.03222579,0.01202096,0.01102606,-0.0005972007,-0.01145946,-0.5563017109519997,-0.3421626674580003,1.8866672302099985,-0.02950566,0.003578573,0.008142367
2023-11-06 21:23:50.512000000,-0.0555418,0.02125677,-0.03570578,0.0001705737,0.03268236,0.006981147,0.0108913,-0.001089954,-0.01086639,-0.5454104109519996,-0.3432526214580003,1.8758008402099984,-0.02936465,0.003561998,0.007994342
2023-11-06 21:23:50.526000128,-0.05566312,0.02116007,-0.03572848,0.004039869,0.03141074,0.0033737,0.01060736,-0.001219362,-0.01044732,-0.5348030509519996,-0.3444719834580003,1.8653535202099985,-0.02922465,0.003544184,0.007853112
2023-11-06 21:23:50.539000064,-0.05564229,0.02096316,-0.03573495,0.005957662,0.03003922,0.00310835,0.01031327,-0.0008546913,-0.009988531,-0.5244897809519996,-0.3453266747580003,1.8553649892099984,-0.02903868,0.003530973,0.007709046
2023-11-06 21:23:50.553999872,-0.05579831,0.02073258,-0.03571561,0.01207374,0.02803032,0.002540381,0.01028708,-0.0007665111,-0.009600748,-0.5142027009519996,-0.3460931858580002,1.8457642412099984,-0.02880969,0.00350231,0.007563913
2023-11-06 21:23:50.568000000,-0.05597203,0.02059007,-0.03591596,0.01368218,0.02456804,0.002004418,0.01016098,-0.000509424,-0.009148694,-0.5040417209519996,-0.3466026098580002,1.8366155472099983,-0.02860665,0.003500563,0.007431425
2023-11-06 21:23:50.582000128,-0.05594111,0.02048939,-0.03585304,0.01538555,0.02229738,0.0005605994,0.009751889,-0.0002981281,-0.008675621,-0.4942898319519996,-0.3469007379580002,1.8279399262099985,-0.02847997,0.003496994,0.007316186
2023-11-06 21:23:50.595000064,-0.05608221,0.02030474,-0.03575128,0.02095534,0.02358645,0.0004665733,0.009516056,-0.0006205813,-0.008087922,-0.4847737759519996,-0.3475213192580002,1.8198520042099984,-0.02835496,0.00347502,0.007206404
2023-11-06 21:23:50.608999936,-0.05623445,0.02013132,-0.03588134,0.0194809,0.02192803,-0.001835989,0.009017149,-0.0005548798,-0.007416077,-0.4757566269519996,-0.3480761990580002,1.812435927209998,-0.02824198,0.003519219,0.007191811
2023-11-06 21:23:50.622999808,-0.0563268,0.01996881,-0.03601968,0.01777892,0.02419576,-0.0003881056,0.008671779,-0.0007775321,-0.0067136,-0.4670848479519996,-0.3488537311580002,1.805722327209998,-0.02813083,0.00355641,0.00719528
2023-11-06 21:23:50.637000192,-0.05642148,0.01973763,-0.03600854,0.0143679,0.02391058,-0.002425988,0.007969946,-0.001097329,-0.006151801,-0.4591149019519996,-0.3499510601580002,1.799570526209998,-0.02803823,0.003553989,0.007152867
2023-11-06 21:23:50.651000064,-0.05634605,0.01955608,-0.03601324,0.008500781,0.02670317,0.0003519223,0.007557363,-0.001396877,-0.005647485,-0.4515575389519996,-0.3513479371580002,1.7939230412099982,-0.02794209,0.003526393,0.007075787
2023-11-06 21:23:50.664999936,-0.05627696,0.01940054,-0.03614318,0.002885218,0.02555982,-0.0006231549,0.006815541,-0.001503425,-0.005361247,-0.4447419979519996,-0.3528513621580002,1.7885617942099985,-0.02786377,0.003509959,0.006997684
2023-11-06 21:23:50.678999808,-0.05633302,0.01923305,-0.03599675,0.001561845,0.02495098,-0.002801656,0.006244992,-0.001403239,-0.00486856,-0.4384970059519996,-0.3542546011580002,1.7836932342099985,-0.02777779,0.003489693,0.006943123
2023-11-06 21:23:50.692000000,-0.05635577,0.01898047,-0.03596299,0.00432501,0.02409537,-0.008410423,0.005879217,-0.000893602,-0.0042501,-0.4326177889519996,-0.3551482031580002,1.7794431342099983,-0.02765978,0.003514994,0.006928165
2023-11-06 21:23:50.706000128,-0.05652186,0.01886711,-0.03583428,0.01245486,0.02360715,-0.0152761,0.005548703,-0.0003572463,-0.003530758,-0.4270690859519996,-0.3555054494580002,1.7759123762099984,-0.02754868,0.003543902,0.006932645
2023-11-06 21:23:50.720000000,-0.05664171,0.01869813,-0.03593984,0.01603856,0.02335395,-0.008990656,0.005044627,0.0001270233,-0.002828458,-0.4220244589519996,-0.3553784261580002,1.7730839182099984,-0.02748443,0.003566218,0.006903766
2023-11-06 21:23:50.733999872,-0.05681945,0.01857182,-0.03587694,0.01796483,0.02041071,-0.005138468,0.00454046,0.0001619169,-0.002069658,-0.4174839989519996,-0.3552165092580002,1.7710142602099983,-0.02743447,0.003564304,0.00688333
2023-11-06 21:23:50.748000000,-0.05680719,0.01843974,-0.03586268,0.01415288,0.01829143,-0.00955379,0.004077461,0.0002062367,-0.001497525,-0.4134065379519996,-0.3550102725580003,1.7695167352099983,-0.02739362,0.003568993,0.006881073
2023-11-06 21:23:50.760999936,-0.0568417,0.01821363,-0.03559059,0.0110794,0.0216704,-0.01546846,0.003585781,-0.0002440233,-0.0009309963,-0.4098207569519996,-0.3552542958580003,1.7685857389099986,-0.02737238,0.00354751,0.006918839
2023-11-06 21:23:50.775000064,-0.05677704,0.01804736,-0.03544395,0.004537991,0.02343225,-0.02145189,0.002583109,-0.0007264843,-0.0004670805,-0.4072376479519995,-0.3559807801580003,1.7681186584099986,-0.02737678,0.00352701,0.006968831
2023-11-06 21:23:50.789999872,-0.05665373,0.01791599,-0.0353924,0.001596838,0.02483155,-0.02007812,0.001914712,-0.00141926,-8.987042e-05,-0.4053229359519996,-0.3574000401580002,1.7680287879899983,-0.02736876,0.003489542,0.006976049
2023-11-06 21:23:50.803000064,-0.05661688,0.01761481,-0.03533068,-0.004324461,0.02774085,-0.01841873,0.001556502,-0.00156388,0.0004515683,-0.4037664339519995,-0.3589639201580002,1.7684803562899984,-0.02735767,0.003460163,0.006975875
2023-11-06 21:23:50.818000128,-0.05662938,0.01735184,-0.03527372,-0.002064788,0.02688397,-0.01430386,0.000882602,-0.002146805,0.0008516664,-0.4028838319519995,-0.3611107251580002,1.7693320226899985,-0.02737058,0.0034333,0.006978763
2023-11-06 21:23:50.831000064,-0.05650464,0.0171178,-0.03526253,-0.005874326,0.03105686,-0.01686845,0.0001951274,-0.002390745,0.001442902,-0.4026887045519995,-0.3635014701580003,1.7707749246899984,-0.0273997,0.003429726,0.006995532
2023-11-06 21:23:50.844999936,-0.05637195,0.01679745,-0.03519537,-0.01066458,0.0351182,-0.01726771,-0.0004326196,-0.002953954,0.001901213,-0.4031213241519996,-0.3664554241580002,1.7726761376899984,-0.02743526,0.003400218,0.007010825
2023-11-06 21:23:50.859000064,-0.05628564,0.01659024,-0.03517172,-0.009214552,0.03678578,-0.01494607,-0.0009956902,-0.00394104,0.002281538,-0.4041170143519996,-0.3703964641580002,1.7749576756899983,-0.02746207,0.003321457,0.007037934
2023-11-06 21:23:50.872999936,-0.0561607,0.01635087,-0.03498352,-0.01117214,0.03814194,-0.01470576,-0.001531129,-0.004154355,0.002776234,-0.4056481433519996,-0.3745508191580002,1.7777339096899984,-0.02749821,0.003245499,0.007074309
2023-11-06 21:23:50.887000064,-0.05607753,0.01610699,-0.03506491,-0.007955644,0.03754114,-0.01380452,-0.002005441,-0.004279483,0.00303149,-0.4076535843519996,-0.3788303021580002,1.7807653996899984,-0.02754861,0.003186923,0.007087823
2023-11-06 21:23:50.900999936,-0.05598526,0.01583332,-0.03494079,-0.008055743,0.03794675,-0.01697668,-0.002350466,-0.004058553,0.003224136,-0.4100040503519996,-0.3828888551580002,1.7839895356899984,-0.02760604,0.003127041,0.007095504
2023-11-06 21:23:50.915000064,-0.05596906,0.01545027,-0.03478954,-0.01025006,0.03865653,-0.02006663,-0.002654552,-0.00373668,0.003420166,-0.4126586023519996,-0.3866255351580002,1.7874097016899984,-0.02766201,0.003070947,0.007107703
2023-11-06 21:23:50.928999936,-0.05588489,0.01522985,-0.03450199,-0.00981948,0.03590345,-0.02473362,-0.003089493,-0.003610326,0.003353119,-0.4157480953519996,-0.3902358611580002,1.7907628206899984,-0.02771757,0.003004667,0.00714111
2023-11-06 21:23:50.941999872,-0.05581845,0.01502669,-0.03449147,-0.01014258,0.03395312,-0.02605559,-0.003324198,-0.003268619,0.003267348,-0.4190722933519996,-0.3935044801580002,1.7940301686899984,-0.02776955,0.002966778,0.007170239
2023-11-06 21:23:50.956000000,-0.05573246,0.0147748,-0.03426677,-0.008416417,0.03182754,-0.02852549,-0.003509265,-0.002904949,0.002916885,-0.4225815583519995,-0.3964094291580002,1.7969470536899983,-0.02783262,0.002951432,0.007146667
2023-11-06 21:23:50.970000128,-0.05573867,0.01454708,-0.0340361,-0.004192894,0.03107521,-0.02765793,-0.003492889,-0.002286678,0.002717241,-0.4260744473519995,-0.3986961071580002,1.7996642946899986,-0.02789212,0.00295092,0.007123489
2023-11-06 21:23:50.984999936,-0.05583005,0.0143711,-0.03397199,-0.001444541,0.02720105,-0.02608136,-0.003546801,-0.001589357,0.002631123,-0.4296212483519995,-0.4002854641580002,1.8022954176899983,-0.02794656,0.002950233,0.007134489
2023-11-06 21:23:50.997999872,-0.05584341,0.01422602,-0.03377748,0.002265612,0.02359528,-0.02771076,-0.003613024,-0.0008538642,0.002522468,-0.4332342723519995,-0.4011393283580002,1.8048178856899983,-0.02799807,0.002941908,0.00715937
2023-11-06 21:23:51.010999808,-0.05585288,0.01395139,-0.03367057,0.007000032,0.02586009,-0.02537522,-0.003192271,-0.0003233493,0.002529807,-0.4364265433519996,-0.4014626776580002,1.8073476926899985,-0.02803327,0.002944269,0.007179129
2023-11-06 21:23:51.026000128,-0.05602592,0.01382285,-0.03365447,0.01041221,0.02590105,-0.02115406,-0.002852841,0.0004278277,0.002592661,-0.4392793843519996,-0.4010348499580002,1.8099403536899985,-0.02807063,0.002989608,0.007212792
2023-11-06 21:23:51.039000064,-0.05609471,0.01366058,-0.03358425,0.01436486,0.02294048,-0.0194651,-0.002739256,0.001053568,0.002537737,-0.4420186403519996,-0.3999812819580002,1.8124780906899984,-0.02811298,0.003036981,0.007242154
2023-11-06 21:23:51.052999936,-0.05624672,0.01349249,-0.0335113,0.01522769,0.02002398,-0.01447558,-0.002528674,0.001721932,0.002557895,-0.4445473143519996,-0.3982593499580002,1.8150359856899985,-0.02814619,0.003077055,0.007269155
2023-11-06 21:23:51.066999808,-0.05639404,0.01332012,-0.03339511,0.02011813,0.01758802,-0.01811558,-0.002118892,0.00198616,0.00266136,-0.4466662063519996,-0.3962731899580002,1.8176973456899983,-0.02816698,0.003102946,0.007297496
2023-11-06 21:23:51.081000192,-0.05667301,0.01323479,-0.03338471,0.0230627,0.0145026,-0.01426891,-0.001709281,0.001938239,0.00257814,-0.4483754873519996,-0.3943349509580002,1.8202754856899983,-0.02818246,0.003134886,0.007309744
2023-11-06 21:23:51.095000064,-0.05669742,0.01318783,-0.03312588,0.01851537,0.01315284,-0.01542148,-0.00101313,0.002496007,0.002701678,-0.4493886173519996,-0.3918389439580002,1.8229771636899983,-0.0281893,0.003185005,0.007302674
2023-11-06 21:23:51.108999936,-0.05689993,0.0131253,-0.03317598,0.02096861,0.007199805,-0.01406003,-0.0005869369,0.002631775,0.002745349,-0.4499755542519996,-0.3892071689580001,1.8257225126899983,-0.02819341,0.003240841,0.007294253
2023-11-06 21:23:51.121999872,-0.05705895,0.01316541,-0.0331104,0.0259477,0.004236985,-0.01346043,2.796098e-05,0.002692853,0.003051434,-0.4499475932719995,-0.3865143159580002,1.8287739466899984,-0.02817934,0.00327598,0.007345634
2023-11-06 21:23:51.137000192,-0.05739098,0.01316437,-0.03309909,0.02732196,-0.001437029,-0.01310903,0.0005791144,0.002715315,0.003399872,-0.4493684788719995,-0.3837990009580002,1.8321738186899983,-0.02815856,0.00331434,0.007399547
2023-11-06 21:23:51.152000000,-0.05746416,0.01317164,-0.03280926,0.0265784,-0.006651426,-0.01373265,0.001215041,0.002567074,0.00383612,-0.4481534378719995,-0.3812319269580002,1.8360099386899984,-0.0281417,0.003326602,0.007451033
2023-11-06 21:23:51.163000064,-0.05754375,0.0133577,-0.03288225,0.02210196,-0.008430574,-0.01171502,0.001851953,0.002201549,0.004129925,-0.4463014848719995,-0.3790303779580001,1.8401398636899984,-0.02813114,0.003347031,0.007493305
2023-11-06 21:23:51.176999936,-0.05758386,0.01349705,-0.03284132,0.01066385,-0.01506647,-0.0058191,0.002120282,0.001974055,0.004448245,-0.4441812028719996,-0.3770563229580002,1.844588108689999,-0.02812785,0.003356907,0.007535195
2023-11-06 21:23:51.191000064,-0.05776967,0.01353073,-0.03253012,0.01232131,-0.01655139,-0.01355782,0.0027178,0.001464073,0.004926489,-0.4414634028719996,-0.3755922499580001,1.8495145976899987,-0.0280811,0.003343239,0.007612712
2023-11-06 21:23:51.204000000,-0.05781607,0.01361018,-0.03245464,0.0114661,-0.01380209,-0.01751218,0.003326309,0.001280325,0.005660628,-0.4381370938719995,-0.3743119249580001,1.8551752256899987,-0.02802121,0.003351889,0.007714455
2023-11-06 21:23:51.217999872,-0.0579469,0.01379228,-0.03255323,0.00922252,-0.01650744,-0.01025173,0.003456659,0.001228868,0.006259787,-0.4346804348719996,-0.3730830569580001,1.8614350126899988,-0.02796159,0.00337918,0.00778646
2023-11-06 21:23:51.232000000,-0.05795191,0.01380691,-0.03262473,0.01124122,-0.01255731,-0.00014853,0.004530463,0.001148392,0.006846676,-0.4301499718719996,-0.3719346649580001,1.8682816886899989,-0.02785742,0.003408487,0.007827369
2023-11-06 21:23:51.246000128,-0.05796418,0.01393592,-0.0327842,0.007251881,-0.01311908,0.009556717,0.005184521,0.0009461068,0.007174455,-0.4249654508719996,-0.3709885581580001,1.8754561436899988,-0.02775874,0.003434683,0.007893292
2023-11-06 21:23:51.260999936,-0.05777741,0.0140723,-0.03304032,5.455037e-05,-0.01299434,0.01726632,0.005467887,0.0003989791,0.007375107,-0.4194975638719996,-0.3705895790580001,1.882831250689999,-0.02767331,0.003442513,0.008008777
2023-11-06 21:23:51.273999872,-0.05766617,0.01414227,-0.03306205,-0.009237663,-0.01075605,0.01883706,0.006049767,6.303814e-05,0.00755423,-0.4134477968719996,-0.3705265409180001,1.890385480689999,-0.02757433,0.003436249,0.008123355
2023-11-06 21:23:51.288999936,-0.05767459,0.01428187,-0.03299907,-0.01197441,-0.01270923,0.01114615,0.006655609,0.0002523706,0.007563818,-0.4067921878719996,-0.3702741703180001,1.8979492986899988,-0.02748421,0.003463991,0.008214824
2023-11-06 21:23:51.302000128,-0.05767158,0.01444244,-0.03306536,-0.01032134,-0.01614203,0.0106951,0.007296218,0.0005270918,0.007520834,-0.3994959698719996,-0.3697470785180001,1.9054701326899988,-0.02738536,0.003505518,0.008304536
2023-11-06 21:23:51.316000000,-0.05755291,0.01472726,-0.03315876,-0.009316818,-0.02532788,0.01385922,0.007625443,0.0004134304,0.007275748,-0.3918705268719996,-0.3693336481180001,1.9127458806899988,-0.02727779,0.003524293,0.008406529
2023-11-06 21:23:51.329999872,-0.05760227,0.01498979,-0.03322663,-0.007695219,-0.02863166,0.01235036,0.008244525,0.0003781789,0.006959444,-0.3836260018719996,-0.3689554692180001,1.9197053246899989,-0.02714696,0.003533726,0.008512512
2023-11-06 21:23:51.342999808,-0.05746379,0.01525852,-0.03328333,-0.007872989,-0.02955129,0.01115689,0.008798692,0.0003800826,0.006660423,-0.3748273098719996,-0.3685753866180001,1.926365747689999,-0.02701093,0.003543954,0.008602053
2023-11-06 21:23:51.357000192,-0.05732911,0.01547647,-0.03336114,-0.007376845,-0.03414942,0.01272059,0.008851859,0.0001846025,0.006001156,-0.3659754508719995,-0.3683907841180001,1.9323669036899989,-0.02688464,0.003556871,0.00858945
2023-11-06 21:23:51.371000064,-0.05742723,0.01568756,-0.03348487,-0.009426038,-0.03409931,0.01495755,0.008987318,6.948598e-05,0.005534307,-0.3569881328719995,-0.3683212981380001,1.9379012106899989,-0.02675295,0.003571597,0.008573863
2023-11-06 21:23:51.385999872,-0.05742212,0.01596689,-0.03343795,-0.004402406,-0.03550903,0.01140726,0.008903488,-0.0001736236,0.005140655,-0.3480846448719995,-0.3684949217380001,1.9430418656899988,-0.02663109,0.003563142,0.008633352
2023-11-06 21:23:51.400000000,-0.05760145,0.01630771,-0.03336474,-0.004346036,-0.03563137,0.0124947,0.008715002,-0.0001367698,0.004872238,-0.3393696428719995,-0.3686316915380001,1.9479141036899987,-0.02651424,0.003559402,0.008715479
2023-11-06 21:23:51.413000192,-0.05747756,0.0164797,-0.03355004,-0.003628702,-0.0302728,0.01203161,0.008617507,-9.883908e-06,0.004605921,-0.3307521358719995,-0.368641575446,1.9525200246899987,-0.02639757,0.003573526,0.008769726
2023-11-06 21:23:51.427000064,-0.0574454,0.01664114,-0.033599,-0.0030039,-0.02608854,0.01251961,0.008427212,0.0002119189,0.004168332,-0.3223249238719995,-0.3684296565460001,1.9566883566899989,-0.02628835,0.003564514,0.008786004
2023-11-06 21:23:51.440999936,-0.05747537,0.01684776,-0.03376465,-0.006178671,-0.02719406,0.01680284,0.008044782,0.0006331996,0.003574339,-0.3142801418719995,-0.367796456946,1.960262695689999,-0.02618936,0.003577857,0.008795308
2023-11-06 21:23:51.454999808,-0.05752574,0.01692292,-0.03375857,0.0006501927,-0.0235281,0.01379007,0.007875592,0.0004335323,0.003389804,-0.3064045498719995,-0.367362924646,1.9636524996899989,-0.02608412,0.003578813,0.008842396
2023-11-06 21:23:51.469000192,-0.0575071,0.01704109,-0.03367137,0.002624001,-0.02175131,0.005325295,0.007495089,0.0009194668,0.0031029,-0.2989094608719995,-0.3664434578460001,1.966755399689999,-0.02598923,0.00359908,0.008886975
2023-11-06 21:23:51.484000000,-0.05761953,0.01715529,-0.0336341,0.005126787,-0.01865046,0.003468503,0.007232539,0.001235058,0.003034252,-0.2916769218719995,-0.365208399846,1.9697896516899989,-0.0259002,0.003631557,0.008903642
2023-11-06 21:23:51.496999936,-0.05774113,0.01727939,-0.03399364,0.009925328,-0.01820225,0.01196554,0.006891261,0.001257799,0.002717366,-0.2847856608719995,-0.363950600846,1.9725070176899988,-0.02582149,0.003692567,0.008871996
2023-11-06 21:23:51.510999808,-0.05782409,0.01744929,-0.0339655,0.01223082,-0.01914455,0.01714494,0.006742144,0.001257809,0.002573033,-0.2780435168719995,-0.362692791846,1.9750800506899988,-0.02574125,0.003728852,0.008854252
2023-11-06 21:23:51.525000192,-0.05786547,0.01744145,-0.0340191,0.008341604,-0.0148814,0.0135025,0.006904253,0.001284473,0.002592205,-0.2711392638719995,-0.361408318846,1.9776722556899988,-0.02564094,0.003751666,0.00889012
2023-11-06 21:23:51.538000128,-0.05789474,0.01762977,-0.03400202,0.005774926,-0.0161557,0.009135614,0.006419671,0.0009640529,0.002394957,-0.2647195928719995,-0.360444265946,1.9800672126899987,-0.02556314,0.003757768,0.008930195
2023-11-06 21:23:51.552000000,-0.05783371,0.01767212,-0.03405475,0.0009575353,-0.01212879,0.008724601,0.006403183,0.0005261186,0.002128535,-0.2583164098719995,-0.359918147346,1.9821957476899987,-0.02548673,0.003744258,0.008932853
2023-11-06 21:23:51.565999872,-0.05768719,0.01778871,-0.03405594,-0.007844056,-0.01274225,0.006825454,0.006421336,0.0006924727,0.001842624,-0.2518950738719995,-0.359225674646,1.9840383716899987,-0.02542009,0.0037328,0.008918192
2023-11-06 21:23:51.580000000,-0.05767621,0.0179036,-0.03413122,-0.00671391,-0.0131513,0.008886843,0.006384741,0.0005450043,0.001338675,-0.2455103328719995,-0.358680670346,1.9853770466899987,-0.02534932,0.003719753,0.008898533
2023-11-06 21:23:51.594000128,-0.05770499,0.01797119,-0.03422785,-0.003005175,-0.01072943,0.01119307,0.006341308,0.0005764695,0.001137115,-0.2391690248719995,-0.358104200846,1.9865141616899984,-0.02526147,0.003733804,0.00891269
2023-11-06 21:23:51.607000064,-0.05775248,0.01810491,-0.03436492,0.0001498203,-0.01275025,0.01513225,0.005910833,0.0008184256,0.0009271116,-0.2332581918719995,-0.357285775246,1.9874412732899984,-0.0251887,0.003758809,0.008927568
2023-11-06 21:23:51.621999872,-0.05786154,0.01813638,-0.03449116,0.006082139,-0.009462937,0.01638089,0.005832355,0.001073464,0.000740385,-0.2274258368719995,-0.356212311246,1.9881816582899987,-0.02512013,0.003798703,0.008875882
2023-11-06 21:23:51.636000000,-0.05797075,0.01820797,-0.03463081,0.01137411,-0.01036674,0.0171425,0.00546933,0.001324909,0.0006660208,-0.2219565068719995,-0.354887402246,1.9888476790899987,-0.0250641,0.003843872,0.008828032
2023-11-06 21:23:51.650000128,-0.05808417,0.01820043,-0.03462236,0.01181735,-0.00709339,0.01644594,0.005381664,0.00150718,0.0006269553,-0.2165748428719995,-0.353380222246,1.9894746343899987,-0.02499509,0.003873749,0.008815674
2023-11-06 21:23:51.663000064,-0.05811143,0.01825941,-0.03479007,0.009835228,-0.005613253,0.01562509,0.00507868,0.001233156,0.0005312725,-0.2114961628719995,-0.352147066246,1.990005906889999,-0.02492993,0.003896637,0.00882404
2023-11-06 21:23:51.676999936,-0.05809778,0.01827347,-0.03492027,0.005996251,-0.003028071,0.01716321,0.004849033,0.0009359412,0.0005573422,-0.2066471298719994,-0.351211125046,1.9905632490899987,-0.02487289,0.003906961,0.008826154
2023-11-06 21:23:51.691000064,-0.05806667,0.01829255,-0.03496129,0.002680351,-0.002049818,0.01310652,0.004627001,0.0007748116,0.0005558513,-0.2020201288719995,-0.350436313446,1.9911191003899984,-0.02483859,0.003900647,0.008805848
2023-11-06 21:23:51.704999936,-0.05803708,0.01830369,-0.03502566,0.0006599419,-0.0004361262,0.01122787,0.004485157,0.0007212943,0.0004331851,-0.1975349718719995,-0.349715019146,1.9915522854899983,-0.02480519,0.00389743,0.008781627
2023-11-06 21:23:51.719000064,-0.0580643,0.01833972,-0.03511224,0.002761144,-0.0007511872,0.01110723,0.004289604,0.0003995709,0.0003457841,-0.1932453678719995,-0.349315448246,1.9918980695899984,-0.02475581,0.003898914,0.008780539
2023-11-06 21:23:51.733999872,-0.05804431,0.01843292,-0.03514823,0.001018184,-0.004649355,0.009630367,0.003970365,0.0005911923,0.0003085976,-0.1892750028719995,-0.348724255946,1.9922066671899985,-0.02470821,0.003915427,0.008790012
2023-11-06 21:23:51.747000064,-0.05810452,0.01846659,-0.03517846,0.004087291,-0.00486696,0.007331492,0.003769166,0.0006183452,0.0002453439,-0.1855058368719995,-0.348105910746,1.9924520110899984,-0.02466125,0.003926722,0.00878169
2023-11-06 21:23:51.760000000,-0.05820662,0.01850671,-0.03522566,0.008287311,-0.005499263,0.007089164,0.003745532,0.0004869895,0.0001019156,-0.1817603048719995,-0.3476189212460001,1.9925539266899983,-0.02461453,0.003931099,0.008730605
2023-11-06 21:23:51.773999872,-0.05821519,0.01852289,-0.03530982,0.006598933,-0.003346222,0.009566564,0.003819626,0.0004542,0.0001796392,-0.1779406788719995,-0.347164721246,1.9927335658899985,-0.02456497,0.003940767,0.008686667
2023-11-06 21:23:51.788000000,-0.05821649,0.01855829,-0.03529881,0.004209515,-0.003693504,0.006391637,0.003554234,0.000503169,0.0002572137,-0.1743864448719995,-0.346661552246,1.9929907795899984,-0.02452354,0.003948506,0.008684576
2023-11-06 21:23:51.802000128,-0.05822556,0.01858109,-0.03534528,0.003159419,-0.00353492,0.006452626,0.003264825,0.0004133502,0.0001878329,-0.1711216198719995,-0.346248202046,1.9931786124899984,-0.02448362,0.00395523,0.008686478
2023-11-06 21:23:51.816999936,-0.05821103,0.01853672,-0.03545524,0.001802381,0.0007101233,0.009166121,0.003259308,0.0002689105,0.0002335699,-0.1678623118719995,-0.345979291546,1.9934121823899984,-0.02445257,0.003952495,0.008658867
2023-11-06 21:23:51.829999872,-0.05816221,0.01850986,-0.03548611,-0.001266619,0.00248666,0.00734934,0.002920111,-4.110025e-06,0.0002122355,-0.1649422008719995,-0.345983401571,1.993624417889999,-0.02445463,0.003926193,0.008592948
2023-11-06 21:23:51.844000000,-0.05811476,0.01848447,-0.03557514,-0.003159221,0.003724157,0.008649033,0.0026317,-0.0004832353,8.83551e-05,-0.1623105008719995,-0.346466636871,1.9937127729899984,-0.02445262,0.003893842,0.008533339
2023-11-06 21:23:51.858000128,-0.05804519,0.0184547,-0.03566956,-0.005051523,0.004961787,0.009948847,0.002560994,-0.0005685802,0.0002219651,-0.1597495068719995,-0.347035217071,1.9939347380899983,-0.0244172,0.003889387,0.008538626
2023-11-06 21:23:51.872000000,-0.05806405,0.01844245,-0.0356795,-0.002192703,0.003818151,0.006470216,0.002472752,-0.0004524125,0.0003401448,-0.1572767548719995,-0.347487629571,1.9942748828899983,-0.02438521,0.003886006,0.00854515
2023-11-06 21:23:51.885999872,-0.05808062,0.01848102,-0.03572027,-0.0005869902,0.0003657231,0.005991047,0.00228241,-0.0005187376,0.0002821137,-0.1549943448719995,-0.348006367171,1.9945569965899983,-0.0243475,0.00386498,0.008527262
2023-11-06 21:23:51.898999808,-0.05811043,0.01847613,-0.03582274,0.001802535,0.0007082956,0.009166439,0.002335851,-0.0006305544,0.0001277694,-0.1526584938719995,-0.348636921571,1.9946847659899984,-0.02429678,0.003835759,0.008486407
2023-11-06 21:23:51.913000192,-0.05809626,0.01850501,-0.03582465,0.0003379678,-0.0009670659,0.006870537,0.00222799,-0.0004567126,2.520095e-05,-0.1504305038719995,-0.349093634171,1.9947099669399984,-0.02425585,0.003815137,0.008455804
2023-11-06 21:23:51.928000000,-0.05807701,0.01854667,-0.03581757,-0.001126857,-0.002642215,0.004574736,0.002077133,-0.0003847453,-3.796245e-06,-0.1483533708719995,-0.349478379471,1.9947061706949984,-0.0242297,0.003811449,0.00845727
2023-11-06 21:23:51.940999936,-0.05803213,0.01859149,-0.0358403,-0.003434551,-0.003235135,0.003518417,0.001905798,-0.0004557448,1.861627e-05,-0.1464475728719995,-0.349934124271,1.9947247869649984,-0.02420782,0.003803845,0.00845941
2023-11-06 21:23:51.954999808,-0.05801981,0.01864651,-0.03580149,-0.002843103,-0.005104321,4.184718e-05,0.00163561,-0.0004334952,-1.742091e-05,-0.1448119628719995,-0.350367619471,1.9947073660549983,-0.02418937,0.00379505,0.008407657
2023-11-06 21:23:51.969000192,-0.05805808,0.01862004,-0.03565935,0.0001801324,-0.003650162,-0.007435727,0.001304375,-0.000227708,0.000202612,-0.1435075878719995,-0.350595327471,1.9949099780549984,-0.02417744,0.003787596,0.008362282
2023-11-06 21:23:51.983000064,-0.05808574,0.01859516,-0.03568982,0.001854277,-0.001057928,-0.003961786,0.001018183,0.0003423459,0.0005400272,-0.1424894048719995,-0.350252981571,1.9954500052549984,-0.02416873,0.003806336,0.008357191
2023-11-06 21:23:51.996999936,-0.0581684,0.0186052,-0.03579045,0.005420565,-0.001259607,0.002329118,0.001066046,0.0007359012,0.000832551,-0.1414233588719995,-0.349517080371,1.9962825562549984,-0.02415153,0.003831313,0.008376155
2023-11-06 21:23:52.010999808,-0.05818315,0.01860088,-0.03592007,0.003863716,0.0005170975,0.007983696,0.0008989975,0.0006931026,0.0009498732,-0.1405243613719995,-0.348823977771,1.9972324294549983,-0.02414167,0.003847935,0.008387513
2023-11-06 21:23:52.025000192,-0.05801837,0.01869795,-0.03609324,-0.007046836,-0.00281325,0.0144738,0.0001939273,0.0003184095,0.0007970844,-0.1403304340719995,-0.348505568271,1.9980295138549984,-0.02415112,0.003866836,0.008367072
2023-11-06 21:23:52.040000000,-0.05785135,0.01861092,-0.03611893,-0.01288523,0.00297298,0.01002006,0.0002116835,-0.0002916449,0.000680482,-0.1401187505719995,-0.348797213171,1.9987099958549983,-0.0241423,0.003863062,0.008335916
2023-11-06 21:23:52.052999936,-0.05771707,0.01859978,-0.03601051,-0.0156529,0.002227027,0.001430576,-0.0002147882,-0.0004159959,0.0006393643,-0.1403335387719995,-0.349213209071,1.9993493601549983,-0.02415543,0.003850242,0.008337164
2023-11-06 21:23:52.066999808,-0.05762687,0.01857802,-0.03585198,-0.01510424,0.002044444,-0.007222531,-0.0005968816,-0.0003745185,0.0005674217,-0.1409304203719995,-0.349587727571,1.9999167818549983,-0.02417482,0.003835699,0.00834252
2023-11-06 21:23:52.081000192,-0.05758328,0.01865777,-0.03574038,-0.01282907,-0.003534132,-0.009064686,-0.001077993,-0.0004588432,0.0002253983,-0.1420084133719995,-0.350046570771,2.0001421801549983,-0.02419675,0.003817192,0.008331542
2023-11-06 21:23:52.095000064,-0.0575833,0.01867726,-0.03554483,-0.009214024,-0.005496828,-0.01590479,-0.00138376,-0.0002390345,-0.0001618699,-0.1433921733719995,-0.350285605271,1.9999803102549985,-0.02420304,0.003795902,0.008282658
2023-11-06 21:23:52.108000000,-0.05764875,0.01866445,-0.03548383,-0.002333534,-0.003584462,-0.01379266,-0.00157857,-0.0002116208,-0.0005630046,-0.1449707433719995,-0.350497226071,1.9994173056549984,-0.02421124,0.003780829,0.008228406
2023-11-06 21:23:52.122999808,-0.05766369,0.01861933,-0.03540053,-0.0007857168,-0.0006098548,-0.01349164,-0.002159809,8.568418e-05,-0.0008629086,-0.1471305523719995,-0.350411541891,1.9985543970549984,-0.02425448,0.003782625,0.008204902
2023-11-06 21:23:52.136000000,-0.05776106,0.01850849,-0.03538003,0.005541137,0.004602626,-0.01095568,-0.002431618,-0.0002373353,-0.001243541,-0.1495621703719995,-0.350648877191,1.9973108560549984,-0.02429436,0.003771236,0.008172262
2023-11-06 21:23:52.151000064,-0.05776264,0.01838434,-0.03533349,0.005152843,0.008941969,-0.01041192,-0.002836785,-0.0005170041,-0.001660813,-0.1523989553719995,-0.351165881291,1.9956500430549984,-0.02436403,0.003758198,0.008119289
2023-11-06 21:23:52.164000000,-0.05767834,0.01823366,-0.03537426,-0.0001541835,0.01460935,-0.005206252,-0.003088357,-0.0006094744,-0.00208392,-0.1554873123719995,-0.351775355691,1.9935661230549984,-0.02445022,0.003751049,0.008047101
2023-11-06 21:23:52.177999872,-0.05768276,0.01816142,-0.03540472,0.0008550029,0.01301811,-0.002210411,-0.003528486,-0.0007690248,-0.002593548,-0.1590157983719995,-0.352544380491,1.9909725750549985,-0.02454083,0.003739321,0.007974602
2023-11-06 21:23:52.192000000,-0.05765777,0.01803389,-0.03547331,0.0002576203,0.01488099,0.001268961,-0.003268868,-0.0004383954,-0.002797172,-0.1622846663719995,-0.352982775891,1.9881754030549983,-0.02457889,0.00374444,0.00792398
2023-11-06 21:23:52.206000128,-0.05772203,0.0179826,-0.03544681,0.003882526,0.01136594,-0.001450606,-0.003090729,0.0001444182,-0.003099543,-0.1653753953719995,-0.352838357691,1.9850758600549985,-0.02461758,0.003757706,0.007871547
2023-11-06 21:23:52.220000000,-0.05783906,0.01798999,-0.03545898,0.008513223,0.006257986,-0.001171863,-0.002872295,0.0007835834,-0.003386917,-0.1682476903719995,-0.352054774291,1.9816889430549984,-0.02467882,0.003776221,0.007788481
2023-11-06 21:23:52.232999936,-0.05802034,0.01802716,-0.03532899,0.01467567,-0.0004858169,-0.007604149,-0.002725755,0.001316342,-0.003897875,-0.1709734453719995,-0.350738432291,1.9777910680549984,-0.02474724,0.003790754,0.00768888
2023-11-06 21:23:52.248000000,-0.05832681,0.01809967,-0.03509789,0.02254349,-0.004755597,-0.009498608,-0.002250406,0.001648826,-0.004007009,-0.1732238513719995,-0.349089606291,1.9737840590549984,-0.02478879,0.003803203,0.007612021
2023-11-06 21:23:52.260999936,-0.05841807,0.01822224,-0.03541011,0.02232589,-0.008805508,-0.002443108,-0.001899085,0.00185632,-0.004155046,-0.1751229363719995,-0.347233286291,1.9696290130549985,-0.02480473,0.003853554,0.007556237
2023-11-06 21:23:52.275000064,-0.05857914,0.01831371,-0.03542425,0.02211644,-0.01282442,0.004618557,-0.001523113,0.001563451,-0.004089917,-0.1766460493719995,-0.345669835291,1.9655390960549983,-0.02481688,0.003871327,0.007507206
2023-11-06 21:23:52.289999872,-0.05860425,0.01837817,-0.03536342,0.018557,-0.01263725,-0.001679877,-0.001152394,0.001505209,-0.003975834,-0.1777984433719995,-0.344164626291,1.9615632620549983,-0.02482481,0.003901837,0.00746096
2023-11-06 21:23:52.303000064,-0.05875165,0.01841959,-0.03517766,0.01403423,-0.01253891,-0.005791105,-0.001333545,0.001502866,-0.003800766,-0.1791319883719995,-0.342661760291,1.9577624960549984,-0.02484685,0.003925003,0.00741896
2023-11-06 21:23:52.316999936,-0.05880724,0.01838437,-0.03516457,0.01170412,-0.006834421,-0.005025174,-0.00134656,0.001354966,-0.003662677,-0.1804785483719995,-0.3413067942909999,1.9540998190549987,-0.02486495,0.003942752,0.007370361
2023-11-06 21:23:52.329999872,-0.05882137,0.01836878,-0.03517316,0.00803704,-0.003187742,-0.003375637,-0.001356577,0.001260701,-0.003560448,-0.1818351253719995,-0.340046093291,1.9505393710549987,-0.02488465,0.003957389,0.007322346
2023-11-06 21:23:52.344000000,-0.05888209,0.01837486,-0.0351852,0.008244662,-0.002265631,-0.002196853,-0.001467288,0.001073937,-0.003589242,-0.1833024133719995,-0.3389721562909999,1.9469501290549984,-0.02490769,0.003970341,0.007264716
2023-11-06 21:23:52.359000064,-0.0589195,0.01828772,-0.0352707,0.008302932,0.003794819,0.001739295,-0.001415438,0.001177799,-0.003458912,-0.1847178513719995,-0.337794357291,1.9434912170549987,-0.02492848,0.004007758,0.007183328
2023-11-06 21:23:52.372000000,-0.05899512,0.01820096,-0.03534972,0.01009211,0.007571156,0.004262553,-0.001480881,0.001401256,-0.00343588,-0.1861987323719995,-0.336393101291,1.9400553370549989,-0.02495444,0.004049767,0.00710087
2023-11-06 21:23:52.385999872,-0.05908633,0.01816633,-0.03531633,0.01068972,0.005692245,0.0007924671,-0.00176095,0.001894966,-0.003516353,-0.1879596823719995,-0.334498135291,1.9365389840549987,-0.0249867,0.004087201,0.007041023
2023-11-06 21:23:52.400000000,-0.05926688,0.01808575,-0.03537614,0.01630933,0.006865072,0.001786116,-0.00159092,0.001883941,-0.003451342,-0.1895506023719995,-0.332614194291,1.9330876420549987,-0.02500297,0.004114965,0.006988602
2023-11-06 21:23:52.414000128,-0.05941556,0.01804042,-0.03541717,0.0184497,0.006425082,0.002725285,-0.001557704,0.001771651,-0.003367759,-0.1911083063719995,-0.330842543291,1.9297198830549984,-0.02502998,0.004134097,0.006929245
2023-11-06 21:23:52.428000000,-0.05947826,0.01800001,-0.03539769,0.01505401,0.006101725,0.0006676539,-0.001557837,0.001734127,-0.003374342,-0.1926661433719995,-0.329108416291,1.9263455410549983,-0.02506819,0.0041418,0.006853142
2023-11-06 21:23:52.441999872,-0.05950529,0.01795548,-0.03533399,0.01052762,0.006179978,-0.003451505,-0.001553708,0.001742765,-0.003446355,-0.1942198513719994,-0.327365651291,1.9228991860549989,-0.0251076,0.004147027,0.006775436
2023-11-06 21:23:52.456000000,-0.05956025,0.01805589,-0.03532599,0.008409814,-0.001227158,-0.002070198,-0.001674716,0.001442129,-0.003606631,-0.1958945673719994,-0.325923522291,1.9192925550549984,-0.02513595,0.004157956,0.006725823
2023-11-06 21:23:52.470000128,-0.05957335,0.01809108,-0.03529511,0.005981881,-0.003001097,-0.002180131,-0.001439939,0.001256149,-0.003730467,-0.1973345063719994,-0.324667373291,1.9155620880549984,-0.02515045,0.00417018,0.006673914
2023-11-06 21:23:52.484999936,-0.05962214,0.01815209,-0.03519999,0.006419099,-0.005932314,-0.005759765,-0.001452848,0.00113772,-0.003877404,-0.1987873543719995,-0.323529653291,1.9116846840549984,-0.02518112,0.004181115,0.006618188
2023-11-06 21:23:52.497999872,-0.05964162,0.01821035,-0.03504874,0.004674212,-0.008307152,-0.01133996,-0.001833191,0.00165947,-0.003850864,-0.2006205453719995,-0.321870183291,1.907833820054999,-0.0252313,0.00421068,0.006566922
2023-11-06 21:23:52.510999808,-0.0597471,0.0182226,-0.03493773,0.007906114,-0.007495088,-0.01352302,-0.0019764,0.002149337,-0.003584563,-0.2025969453719995,-0.319720846291,1.9042492570549987,-0.02527318,0.004246515,0.006521859
2023-11-06 21:23:52.526000128,-0.05995576,0.01807162,-0.03479018,0.01530772,-0.007194203,-0.01699294,-0.002208254,0.002275019,-0.003449013,-0.2048051993719994,-0.317445827291,1.9008002440549987,-0.02530959,0.004271619,0.00646865
2023-11-06 21:23:52.539000064,-0.06007038,0.01812282,-0.03471597,0.01409495,-0.00188755,-0.01420104,-0.002137688,0.002393663,-0.003168309,-0.2069428873719994,-0.3150521642910001,1.8976319350549984,-0.02533933,0.004304387,0.006433188
2023-11-06 21:23:52.552999936,-0.06021979,0.01817504,-0.03467443,0.0152611,-0.0008878969,-0.01521419,-0.002367111,0.002203305,-0.003021904,-0.2093099983719994,-0.3128488592910001,1.8946100310549987,-0.02537325,0.004325172,0.006377967
2023-11-06 21:23:52.566999808,-0.06022933,0.018078,-0.03461866,0.01478245,0.002176242,-0.01269863,-0.002347455,0.001921615,-0.002733624,-0.2116574533719994,-0.3109272442910001,1.8918764070549987,-0.0253978,0.004335391,0.006308064
2023-11-06 21:23:52.581000192,-0.06031412,0.01801983,-0.03464877,0.01442481,0.004879158,-0.007006489,-0.002212937,0.00162086,-0.002428818,-0.2138703903719994,-0.3093063842910001,1.8894475890549989,-0.02542138,0.004348356,0.006254439
2023-11-06 21:23:52.594000128,-0.06036897,0.01800632,-0.03461627,0.01220377,0.004027319,-0.005939845,-0.002157398,0.001492694,-0.002062326,-0.2160277883719994,-0.3078136902910001,1.8873852630549988,-0.02545258,0.004364714,0.006232521
2023-11-06 21:23:52.608999936,-0.06043146,0.01801011,-0.03459161,0.01087238,0.001971724,-0.005041593,-0.001845013,0.001316439,-0.001717182,-0.2178728013719995,-0.3064972512910001,1.8856680810549988,-0.0254724,0.004377711,0.006216368
2023-11-06 21:23:52.622999808,-0.06044767,0.01803496,-0.03458002,0.007320978,-0.0009309274,-0.003075015,-0.001553532,0.001055062,-0.001470267,-0.2194263333719995,-0.3054421892910001,1.8841978140549989,-0.02547308,0.004372091,0.006177094
2023-11-06 21:23:52.636000000,-0.0604642,0.01803362,-0.03453638,0.005017944,-0.00154835,-0.004127673,-0.001082686,0.0008063868,-0.001302324,-0.2205090193719995,-0.3046358024910001,1.8828954900549988,-0.02546427,0.004361087,0.006137767
2023-11-06 21:23:52.650000128,-0.06043973,0.01809761,-0.0345318,0.001467134,-0.004456384,-0.002160291,-0.0006702746,0.0005546257,-0.001073695,-0.2211792939719994,-0.3040811767910001,1.8818217950549987,-0.02545872,0.004357775,0.006122015
2023-11-06 21:23:52.664999936,-0.06036279,0.01817954,-0.03455829,-0.00398176,-0.006123086,0.001095047,-0.0002819781,0.0003226243,-0.0007940758,-0.2214612720719994,-0.3037585524910001,1.881027719254999,-0.02545344,0.004358148,0.006122249
2023-11-06 21:23:52.677999872,-0.06032952,0.01821783,-0.0345134,-0.005118156,-0.005731816,-0.0009655974,-4.306326e-05,3.951477e-05,-0.0005983161,-0.2215043353319994,-0.303719037721,1.8804294031549984,-0.02544602,0.004349633,0.006117274
2023-11-06 21:23:52.692000000,-0.06033082,0.01828676,-0.03448575,-0.003177749,-0.007090597,-0.001193407,-1.02623e-06,-0.0003612891,-0.0006170837,-0.2215053615619995,-0.304080326821,1.8798123194549987,-0.02542609,0.004342071,0.00609322
2023-11-06 21:23:52.706000128,-0.06025039,0.01834086,-0.03442635,-0.006574152,-0.007435432,-0.003245737,5.0558e-05,-0.0001169488,-0.0003691884,-0.2214548035619994,-0.3041972756210001,1.8794431310549984,-0.02540441,0.004350292,0.006078499
2023-11-06 21:23:52.720000000,-0.06025506,0.01837242,-0.03448049,-0.003982192,-0.006123526,0.001095779,0.0002325532,-0.000165903,-0.0001233428,-0.2212222503619994,-0.3043631786210001,1.8793197882549983,-0.02539155,0.004351515,0.006079968
2023-11-06 21:23:52.733999872,-0.06027211,0.01843444,-0.03458443,-0.001464237,-0.006095069,0.007447411,0.0003982069,-0.0004370946,0.0001342662,-0.2208240434619994,-0.3048002732210001,1.8794540544549985,-0.02538251,0.004346511,0.006091642
2023-11-06 21:23:52.747000064,-0.06014828,0.01847452,-0.03457769,-0.007895779,-0.004806153,0.004627197,0.0005519713,-0.0003173762,0.0003631511,-0.2202720721619994,-0.3051176494210001,1.8798172055549984,-0.02537469,0.004344709,0.006105853
2023-11-06 21:23:52.760999936,-0.06012924,0.01855856,-0.03452534,-0.006406785,-0.007904666,0.0009958518,0.0003383854,-0.0005852076,0.000392158,-0.2199336867619994,-0.3057028570210001,1.8802093635549983,-0.02538996,0.004330491,0.00612558
