time,acceleration_x,acceleration_y,acceleration_z
1699305825415,1.909502e-05,-0.0003933975,0.0008962629
1699305825424,-0.0032039829799999,0.0001402463999999,0.0016270601
1699305825439,-0.00621595998,0.0012853254,0.0024616801
1699305825459,-0.00906742598,0.0027021334,0.0030372693
1699305825479,-0.0116054219799999,0.0040983994,0.0031509619
1699305825498,-0.01332947998,0.0051934424,0.0028562875
1699305825515,-0.01435908598,0.0061508959999999,0.0020614918
1699305825532,-0.01433715249,0.0077307839999999,0.0008349628
1699305825548,-0.01309520249,0.010151956,-0.0007285671999999
1699305825565,-0.0106125574899999,0.01304136,-0.0027555792
1699305825580,-0.0071011954899999,0.0159522,-0.0053150342
1699305825596,-0.0024868714899999,0.018642218,-0.0081691822
1699305825611,0.00296789551,0.021418672,-0.0112394122
1699305825627,0.00936228451,0.024475872,-0.0143842752
1699305825642,0.01665095751,0.027367296,-0.0178103511999999
1699305825656,0.02456239251,0.030005825,-0.0216085052
1699305825671,0.03274263351,0.032258666,-0.0257722342
1699305825685,0.04064176751,0.034442268,-0.0303396952
1699305825700,0.04834632251,0.036797467,-0.0352134662
1699305825715,0.05560381251,0.038942481,-0.0406144442
1699305825728,0.06237142251,0.040934817,-0.0463544292
1699305825743,0.06845647351,0.0429049779999999,-0.0523906762
1699305825756,0.07371390151,0.044697719,-0.0585296742
1699305825769,0.07847505351,0.046410872,-0.0645837792
1699305825783,0.08233567351,0.0476550929999999,-0.0706834452
1699305825797,0.08528115551,0.0485313103,-0.0767489402
1699305825812,0.08748039251,0.0490017181,-0.0827157522
1699305825826,0.08861218851,0.0498644854,-0.0884819972
1699305825839,0.08871777491,0.0509920654,-0.0938054082
1699305825853,0.08786155461,0.0528705804,-0.0986453042
1699305825868,0.08622576661,0.0552086614,-0.1028565182
1699305825882,0.08353063861,0.0569735503999999,-0.1066977342
1699305825897,0.0800341516099999,0.0584733853999999,-0.1099058512
1699305825912,0.0758369406099999,0.0599049793999999,-0.1124552222
1699305825926,0.0710489556099999,0.0609130873999999,-0.1140636182
1699305825942,0.06561849461,0.0612766058999999,-0.1149078976
1699305825957,0.0595424096099999,0.060968413,-0.115143989
1699305825970,0.0531714326099999,0.059674634,-0.114802104
1699305825983,0.0465145796099999,0.05786316,-0.1138979372
1699305825996,0.0395644956099999,0.0560992129999999,-0.1124005862
1699305826010,0.03247136561,0.0542295399999999,-0.1102965922
1699305826024,0.0252435016099999,0.0522178479999999,-0.1076275402
1699305826034,0.0180740366099999,0.0498479209999999,-0.1045814472
1699305826048,0.0111865006099999,0.0470063249999999,-0.1009920652
1699305826062,0.0044584226099999,0.0436699709999999,-0.0970499802
1699305826076,-0.00181090439,0.0397588039999999,-0.0928321952
1699305826091,-0.00762302839,0.0353589049999999,-0.0883604992
1699305826104,-0.01293832839,0.0316117779999999,-0.0837135072
1699305826118,-0.01763008939,0.0282500109999999,-0.0790428032
1699305826131,-0.02172516339,0.0260266999999999,-0.0742402842
1699305826145,-0.02524356739,0.0246077839999999,-0.0693734322
1699305826159,-0.02802443139,0.0236604446999999,-0.0645412922
1699305826173,-0.03042034039,0.0225763296999999,-0.0598157892
1699305826188,-0.03241921639,0.0214516536999999,-0.0550020792
1699305826200,-0.03419666039,0.0203285516999999,-0.0500686092
1699305826214,-0.03589751739,0.0193046646999999,-0.0449341832
1699305826228,-0.03736703439,0.0179829226999999,-0.0397394782
1699305826242,-0.03889255439,0.0166650746999999,-0.0344889432
1699305826256,-0.04008149139,0.0150896916999999,-0.0291017762
1699305826270,-0.04111444939,0.0137169896999999,-0.0235702722
1699305826282,-0.04203997729,0.0126470556999999,-0.0179048732
1699305826297,-0.04250998219,0.0118552625999999,-0.0120676272
1699305826311,-0.04249385587,0.0113934837999999,-0.0061603832
1699305826325,-0.04219177067,0.0109548191999999,-0.0002357872
1699305826339,-0.04131103797,0.0098485251999999,0.0057637717999999
1699305826352,-0.03996365697,0.0085506821999999,0.0117376147999999
1699305826365,-0.03845311897,0.0069298801999999,0.0177499257999999
1699305826380,-0.03655510997,0.0050573451999999,0.0240083877999999
1699305826395,-0.03432376397,0.0031193361999999,0.0307134657999999
1699305826408,-0.03186747397,0.0009946211999999,0.0379495267999999
1699305826422,-0.02931890097,-0.0011708848,0.0456971827999999
1699305826437,-0.02640012797,-0.0035204628,0.0537298117999999
1699305826448,-0.02313040497,-0.0067608948,0.0617982817999999
1699305826463,-0.01970573797,-0.0105034828,0.0699021517999999
1699305826477,-0.01610965797,-0.0145269268,0.0779400097999999
1699305826490,-0.01237134397,-0.0188390168,0.0858322347999999
1699305826505,-0.00842619397,-0.0229804128,0.0937055557999999
1699305826519,-0.00412814797,-0.0266427838,0.1014177927999999
1699305826533,0.0004853060299999,-0.0297332418,0.1088353387999999
1699305826548,0.0054509200299999,-0.0322353218,0.1158978587999999
1699305826562,0.0105328260299999,-0.0346041628,0.1223164958
1699305826576,0.0158871540299999,-0.0369255468,0.1281667467999999
1699305826590,0.0213388610299999,-0.0394101378,0.1336171937999999
1699305826604,0.0269120550299999,-0.0422369948,0.1387019637999999
1699305826618,0.0322408830299999,-0.0448039778,0.1433486117999999
1699305826632,0.0372285000299999,-0.0469658148,0.1475763117999999
1699305826647,0.0422038050299999,-0.0489093628,0.1518165717999999
1699305826660,0.0469390260299999,-0.0501397738,0.1558504277999999
1699305826674,0.0512910750299999,-0.0510349625,0.1599395917999999
1699305826688,0.0556112450299999,-0.0521449955,0.1639761407999999
1699305826702,0.0597847310299999,-0.0533491475,0.1680445397999999
1699305826715,0.0639463500299999,-0.0544374905,0.1722847837999999
1699305826729,0.0677961990299999,-0.0556704565,0.1766487157999999
1699305826743,0.0712627520299999,-0.0567677305,0.1813653267999999
1699305826757,0.0743918170299999,-0.0584033895,0.1862681147999999
1699305826771,0.0770748420299999,-0.0602107265,0.1914945307999999
1699305826785,0.0792585880299999,-0.0622240205,0.1971051267999999
1699305826799,0.0808845820299999,-0.0646033385,0.2030901908
1699305826813,0.0819971240299999,-0.0668825555,0.2094835718
1699305826826,0.0825833105299999,-0.0690902105,0.2161888968
1699305826840,0.0829433775299999,-0.0713228365,0.2231368838
1699305826854,0.0830863821299999,-0.0740372925,0.2302210598
1699305826868,0.0826448342299999,-0.0770538125,0.2373155237999999
1699305826883,0.0818612550299999,-0.0801874535,0.2444892477999999
1699305826896,0.0806251480299999,-0.0833557305,0.2517417888
1699305826909,0.0791168330299999,-0.0859196485,0.2592099197999999
1699305826924,0.0772890100299999,-0.0882592975,0.2668803937999999
1699305826938,0.0751450060299999,-0.0900151735,0.2748496897999999
1699305826952,0.0726071220299999,-0.0920335265,0.2829656607999999
1699305826966,0.0698477820299999,-0.0938160515,0.2912993197999999
1699305826979,0.0667661330299999,-0.0959664925,0.2997123947999999
1699305826993,0.0634760910299999,-0.0983133235,0.3083025597999999
1699305827007,0.0598479240299999,-0.1006245595,0.3170342327999999
1699305827021,0.0561368830299999,-0.1030610505,0.3259830037999999
1699305827035,0.0521556150299999,-0.1056068185,0.3350437417999999
1699305827049,0.0483199080299999,-0.1077973635,0.3441753607999999
1699305827063,0.0445973420299999,-0.1099910715,0.3530040877999999
1699305827077,0.0411010880299999,-0.1123075745,0.3614518457999999
1699305827091,0.0377663020299999,-0.1146402185,0.3692910727999999
1699305827104,0.0346688830299999,-0.1169752635,0.3766210977999999
1699305827119,0.0321867890299999,-0.1193141435,0.3833949927999999
1699305827132,0.0301107930299999,-0.1213174155,0.3895985647999999
1699305827146,0.0284375410299999,-0.1230598885,0.3951083517999998
1699305827160,0.0271270290299999,-0.1240400493,0.4000476387999999
1699305827173,0.0262498238299999,-0.1245534244,0.4044503317999999
1699305827188,0.0257259760299999,-0.1243171013,0.4085058857999999
1699305827201,0.0257164418479999,-0.1233914565,0.4122839147999999
1699305827215,0.0263841472479999,-0.1222099575,0.4156421707999999
1699305827229,0.0273735159479999,-0.1213840156,0.4184153957999999
1699305827243,0.0287151849479999,-0.1208299216,0.4206043697999999
1699305827257,0.0302135909479999,-0.1197266596,0.4225127807999999
1699305827272,0.0320614089479999,-0.1177516626,0.4243181827999999
1699305827285,0.0339838129479999,-0.1154201766,0.4259825027999999
1699305827299,0.0360891219479999,-0.1131177546,0.4273267307999999
1699305827313,0.0383976719479999,-0.1112632786,0.4285081837999999
1699305827327,0.0408378949479999,-0.1101622676,0.4297263897999999
1699305827341,0.0434349429479999,-0.1095925179,0.4311368247999999
1699305827355,0.0459935529479999,-0.109817257,0.4325943167999999
1699305827369,0.0485275689479999,-0.1107792745,0.4339351637999999
1699305827383,0.0511030619479999,-0.1127157625,0.4351067457999999
1699305827397,0.0538060349479999,-0.1154129335,0.4359504811999999
1699305827410,0.0565178649479999,-0.1182886835,0.4364673072999999
1699305827425,0.0589538369479999,-0.1209500315,0.4367528665999999
1699305827438,0.0612973909479999,-0.1229741815,0.4367702653399999
1699305827452,0.0635433519479999,-0.1243897225,0.4366053779399999
1699305827466,0.0656416399479999,-0.1258289885,0.4359514488399999
1699305827480,0.0676013639479999,-0.1270689975,0.4349981700399999
1699305827494,0.0692348329479999,-0.1282735255,0.4334663190399999
1699305827508,0.0705250869479999,-0.1293526095,0.4315992000399999
1699305827522,0.0713227366479999,-0.130130714,0.4292336800399999
1699305827536,0.0714696815479999,-0.1309158501,0.4262928830399999
1699305827550,0.0710849927479999,-0.1313964465,0.4229524780399999
1699305827563,0.0701340802479999,-0.1316541567,0.4193946200399999
1699305827577,0.0685672972479999,-0.13158652339,0.4158000560399999
1699305827591,0.0665432422479999,-0.13096604959,0.4125031900399999
1699305827605,0.0640527792479999,-0.12978983959,0.4093842070399999
1699305827619,0.0611821482479999,-0.12824243459,0.4063333300399999
1699305827633,0.0581207572479999,-0.12721961059,0.4031564860399999
1699305827647,0.0547621652479999,-0.12646670309,0.3999092530399998
1699305827661,0.0513777192479999,-0.12615719889,0.3967529360399998
1699305827675,0.0479547842479999,-0.12594500149,0.3939088870399998
1699305827688,0.0442236182479999,-0.12555685999,0.3914471040399998
1699305827703,0.0403053952479999,-0.12503429109,0.3894414710399998
1699305827717,0.0361161972479999,-0.12453332029,0.3878690100399998
1699305827731,0.0317149002479999,-0.12395116189,0.3866792700399998
1699305827744,0.0269795062479999,-0.12370943289,0.3858889093399998
1699305827758,0.0216892592479999,-0.12404371709,0.3852700913399998
1699305827772,0.0158921542479999,-0.12482519779,0.3850122295399998
1699305827786,0.0095431762479999,-0.12604881879,0.3851530934399998
1699305827800,0.0026158552479999,-0.12716541879,0.3858875104399998
1699305827815,-0.004798591752,-0.12833683179,0.3870323794399998
1699305827828,-0.013003506752,-0.12911024609,0.3885525804399998
1699305827842,-0.022003271752,-0.12997579679,0.3902191204399998
1699305827856,-0.031754124752,-0.13099215179,0.3920252384399998
1699305827870,-0.042177274752,-0.13192121679,0.3940037574399998
1699305827884,-0.053085664752,-0.13294245479,0.3961427204399998
1699305827898,-0.064249394752,-0.13382588159,0.3986228314399998
1699305827912,-0.075968734752,-0.13462562129,0.4011604144399998
1699305827927,-0.088109794752,-0.13562670229,0.4037022354399998
1699305827940,-0.100711634752,-0.13621009339,0.4063387314399998
1699305827954,-0.113608384752,-0.13680427659,0.4093084124399998
1699305827968,-0.126731554752,-0.13696449189,0.4126656444399998
1699305827982,-0.139908244752,-0.13685723439,0.4166664644399998
1699305827996,-0.153082464752,-0.13676621522,0.4211035084399998
1699305828010,-0.166704964752,-0.13690947222,0.4258876684399998
1699305828024,-0.180318284752,-0.13763242382,0.4308353474399998
1699305828037,-0.193972844752,-0.1382418847199999,0.4361381914399997
1699305828053,-0.207667144752,-0.1387148179199999,0.4416860454399998
1699305828065,-0.221545164752,-0.13961433452,0.4472110004399998
1699305828079,-0.235195444752,-0.14064485752,0.4527597304399998
1699305828093,-0.248608444752,-0.14175828652,0.4582977154399998
1699305828107,-0.261700854752,-0.14294398752,0.4639341734399998
1699305828121,-0.274426004752,-0.14408878952,0.4696682454399998
1699305828136,-0.286603724752,-0.14504942222,0.4755194384399998
1699305828149,-0.298210624752,-0.14646744222,0.4812173274399998
1699305828163,-0.308994894752,-0.14834267522,0.4866714944399998
1699305828177,-0.319128604752,-0.15057295822,0.4918538304399998
1699305828190,-0.328536922752,-0.15245021222,0.4966731694399998
1699305828204,-0.337041508752,-0.15436136622,0.5011470774399998
1699305828218,-0.344729837752,-0.15558700222,0.5052642974399998
1699305828232,-0.351758333752,-0.15630657952,0.5091597994399998
1699305828248,-0.358129102752,-0.15629336899,0.5128056794399998
1699305828261,-0.363945468752,-0.15577801139,0.5162684384399998
1699305828274,-0.369040044752,-0.15489168809,0.5195834544399998
1699305828288,-0.373813072752,-0.15366387709,0.5226743994399997
1699305828301,-0.378255599752,-0.15252804809,0.5255841334399998
1699305828316,-0.382614266752,-0.15128976909,0.5283396584399997
1699305828329,-0.387208985752,-0.1500389460899999,0.5310327494399998
1699305828343,-0.392076795752,-0.14851531909,0.5338831354399998
1699305828357,-0.397357886752,-0.1468507430899999,0.5367949514399998
1699305828372,-0.403294239752,-0.1450256750899999,0.5398970164399998
1699305828385,-0.410046521752,-0.1433346240899999,0.5431779884399998
1699305828399,-0.417101674752,-0.1420248250899999,0.5469345464399997
1699305828414,-0.424669900752,-0.14121921439,0.5510668694399997
1699305828427,-0.432780119752,-0.14092606299,0.5553797204399997
1699305828441,-0.441065075752,-0.1414203795899999,0.5598806704399997
1699305828456,-0.449964743752,-0.1421576540899999,0.5646038294399996
1699305828469,-0.459214762752,-0.1431008981899999,0.5695471864399997
1699305828484,-0.468800143752,-0.1438801439899999,0.5745640934399997
1699305828497,-0.478345346752,-0.1446334857899999,0.5797273924399997
1699305828511,-0.487779912752,-0.1453045826899999,0.5850768544399997
1699305828525,-0.497282911752,-0.1457256185899999,0.5907284404399997
1699305828539,-0.506881285752,-0.1463924696899999,0.5965277294399998
1699305828553,-0.516439119752,-0.1470908906899999,0.6023794274399997
1699305828567,-0.525890950752,-0.1477651509899999,0.6082626364399997
1699305828580,-0.535386699752,-0.14902610599,0.6139958024399996
1699305828594,-0.544891357752,-0.14986328039,0.6199567524399996
1699305828608,-0.554486245752,-0.1497452008899999,0.6265843504399996
1699305828622,-0.564230492752,-0.1486239428899999,0.6338911094399996
1699305828636,-0.5742675127519999,-0.1470707288899999,0.6418528024399996
1699305828650,-0.584389302752,-0.1455700398899999,0.6505903434399997
1699305828664,-0.5949303327519999,-0.1441007428899999,0.6601843954399996
1699305828678,-0.6057441727519999,-0.1430006798899999,0.6706768154399996
1699305828692,-0.6170380027519998,-0.1420944001899999,0.6821636554399996
1699305828706,-0.6286003227519998,-0.1418326592899999,0.6947607854399995
1699305828720,-0.6406937727519998,-0.1418299296999999,0.7087909654399995
1699305828734,-0.6532504827519998,-0.1422727028999999,0.7246862754399995
1699305828747,-0.6661631627519998,-0.1427912811999999,0.7424635054399995
1699305828762,-0.6795021627519998,-0.1440063661999999,0.7624013854399995
1699305828775,-0.6936149527519998,-0.1460368431999999,0.7844301554399995
1699305828789,-0.7076916127519998,-0.1489421201999999,0.8087303754399995
1699305828803,-0.7221306327519997,-0.1528204851999999,0.8348593254399995
1699305828817,-0.7369568627519998,-0.1573513511999999,0.8627967654399995
1699305828831,-0.7521015327519998,-0.1624068661999999,0.8923522854399994
1699305828845,-0.7676071027519997,-0.1674807591999999,0.9235033454399996
1699305828858,-0.7835152127519998,-0.1727681721999999,0.9560593354399994
1699305828872,-0.7998564527519998,-0.1781555781999999,0.9899022454399994
1699305828887,-0.8164751627519998,-0.1835439351999999,1.0250130654399994
1699305828901,-0.8332975127519998,-0.1891453261999999,1.0612095054399997
1699305828915,-0.8503497827519998,-0.1950873791999999,1.0983524454399995
1699305828928,-0.8677711927519998,-0.2013820181999999,1.1364364154399995
1699305828942,-0.8858524327519998,-0.2075766451999999,1.1752967354399997
1699305828956,-0.9046489427519998,-0.2138611991999999,1.2146815254399994
1699305828970,-0.9241334427519998,-0.2200422801999999,1.2547556954399994
1699305828984,-0.9444031527519998,-0.2258016301999999,1.2955081154399994
1699305828998,-0.9656578127519998,-0.2306087991999999,1.3368976754399997
1699305829011,-0.9878201427519998,-0.2353085731999999,1.3787462554399994
1699305829026,-1.010697412752,-0.2395801981999999,1.4210500154399994
1699305829040,-1.0345516927519998,-0.2439067001999999,1.4635572354399995
1699305829053,-1.0592343727519995,-0.2489238681999999,1.5061251954399997
1699305829068,-1.0846688927519996,-0.2546193301999999,1.5485963454399994
1699305829082,-1.1108998827519996,-0.2607101191999999,1.5907571754399994
1699305829095,-1.1378572427519995,-0.2669006081999999,1.6327045354399994
1699305829109,-1.1653194827519997,-0.2733507941999999,1.6743803754399993
1699305829123,-1.1929908427519995,-0.2798440222,1.7158901354399994
1699305829136,-1.2203909227519996,-0.2867018092,1.7572576354399994
1699305829152,-1.2471367427519997,-0.2941452592,1.7984738254399997
1699305829165,-1.2735935827519995,-0.3019787562,1.8394139954399995
1699305829179,-1.2989963827519997,-0.3101199452,1.88010137544
1699305829193,-1.3233668927519997,-0.3183687712,1.9202514354399995
1699305829206,-1.3464636227519995,-0.3264390222,1.95969929544
1699305829220,-1.3683131627519995,-0.3341911002,1.99815056544
1699305829234,-1.3887461527519995,-0.3411988152,2.03562971544
1699305829248,-1.4075650527519996,-0.3476452412,2.0721341954399994
1699305829262,-1.4247096627519995,-0.3532071352,2.1077184254399994
1699305829276,-1.4403039327519995,-0.3580841802,2.1424410054399994
1699305829289,-1.4541944427519995,-0.3623594222,2.1764588654399994
1699305829305,-1.4663378227519994,-0.3665165892000001,2.2097115654399992
1699305829318,-1.4768979427519997,-0.3706565802000001,2.242174215439999
1699305829331,-1.4858940827519995,-0.3749919472,2.2739068954399992
1699305829345,-1.4934585257519994,-0.3796966602000001,2.304858045439999
1699305829359,-1.4997006367519994,-0.3839601572000001,2.33498600544
1699305829373,-1.5047953027519994,-0.3878004302000001,2.3643352154399992
1699305829388,-1.5086728377519991,-0.3908764082000001,2.3931269154399994
1699305829401,-1.5115359837519993,-0.3937843562000001,2.42125636544
1699305829415,-1.5133895647519993,-0.3962365292000001,2.44883041544
1699305829428,-1.5143890331519994,-0.3990492072000001,2.47549295544
1699305829443,-1.514658040051999,-0.4022233362000001,2.50110029544
1699305829456,-1.5138805989519992,-0.4058052062000001,2.52557511544
1699305829470,-1.5123755869519993,-0.4095177792000001,2.5487938654399995
1699305829485,-1.5101781559519991,-0.4135448562000001,2.57060489544
1699305829498,-1.5068471159519994,-0.4177074572000001,2.59098198544
1699305829512,-1.5024919479519994,-0.4217930302000001,2.60995581544
1699305829526,-1.4971365769519993,-0.4255946022,2.62751820544
1699305829540,-1.4907213919519993,-0.4294556712,2.64362405544
1699305829554,-1.483584238951999,-0.4329280412,2.6581327954400003
1699305829569,-1.4758930889519992,-0.4360011662,2.67119615544
1699305829582,-1.4674010149519991,-0.4390263292,2.68275927544
1699305829595,-1.4582598899519992,-0.4413325372,2.69286616544
1699305829609,-1.4483284709519992,-0.4432411622,2.70163091644
1699305829623,-1.4376568809519992,-0.4443930232,2.70918480444
1699305829637,-1.4259816309519993,-0.4452626226,2.71551545844
1699305829652,-1.4135478609519994,-0.44527540531,2.72047963144
1699305829665,-1.4006518609519991,-0.44477667161,2.72421331044
1699305829679,-1.3873632309519994,-0.44341510261,2.7266636654400003
1699305829692,-1.3737384209519994,-0.44143004161,2.7279143234400003
1699305829706,-1.3603082709519994,-0.43850029961,2.72794222121
1699305829720,-1.346762960951999,-0.4352526856099999,2.72669308521
1699305829734,-1.3333218409519991,-0.4311686696099999,2.72416215121
1699305829748,-1.3196263009519993,-0.4269599386099999,2.72062630521
1699305829762,-1.3058139809519993,-0.4225819716099999,2.7162216972099995
1699305829776,-1.2921075309519994,-0.4181610586099999,2.71090928021
1699305829790,-1.2783481909519994,-0.4139063326099999,2.7048206782099995
1699305829805,-1.2647332709519994,-0.4099171856099999,2.69792849921
1699305829819,-1.2510390009519994,-0.4062993036099999,2.6905158522099994
1699305829833,-1.2371689809519997,-0.4028516036099999,2.6828943792099995
1699305829846,-1.2231699709519994,-0.3998923366099999,2.6748721632099994
1699305829859,-1.2091137909519991,-0.3975074516099999,2.66621352921
1699305829873,-1.1947105009519994,-0.3954202546099999,2.656993881209999
1699305829887,-1.1799818909519997,-0.3939428026099999,2.647508057209999
1699305829901,-1.1650111609519995,-0.3932347088099999,2.637617460209999
1699305829915,-1.1495968509519996,-0.3932404840579999,2.627515710209999
1699305829929,-1.1339171209519996,-0.3938929855579999,2.616852470209999
1699305829943,-1.1177527009519996,-0.3950409195579999,2.605864940209999
1699305829956,-1.1017340809519995,-0.3967837035579999,2.594374380209999
1699305829970,-1.0855536609519996,-0.3987040465579999,2.5823859202099992
1699305829985,-1.0689095609519996,-0.400478167558,2.569640620209999
1699305829998,-1.0523157509519996,-0.401779698558,2.555873490209999
1699305830013,-1.0358449609519995,-0.402362717358,2.541134960209999
1699305830026,-1.0191637509519995,-0.402652963958,2.525505680209999
1699305830039,-1.0024374609519997,-0.402284840558,2.509113080209999
1699305830054,-0.9856224309519996,-0.401182928558,2.491790730209998
1699305830068,-0.9688114109519996,-0.399810647558,2.4735561202099987
1699305830082,-0.9521201709519996,-0.398420874558,2.454466040209999
1699305830096,-0.9353752609519996,-0.396880202558,2.434856910209999
1699305830109,-0.9190420309519995,-0.395298020558,2.414741960209999
1699305830123,-0.9027657709519996,-0.393360911558,2.394006540209999
1699305830138,-0.8866611509519995,-0.390942738558,2.372839310209999
1699305830152,-0.8706697209519995,-0.388128775558,2.351321700209999
1699305830164,-0.8547397709519995,-0.385187955558,2.329480670209999
1699305830178,-0.8391107909519995,-0.381865488558,2.307507870209999
1699305830192,-0.8236620409519995,-0.378356585558,2.285413030209999
1699305830206,-0.8086514809519995,-0.374781862558,2.263127000209999
1699305830220,-0.7938502809519995,-0.371315535558,2.241098050209999
1699305830234,-0.7792971509519995,-0.3682089615580001,2.2193362502099987
1699305830250,-0.7650168009519994,-0.3655769335580001,2.197835690209999
1699305830262,-0.7513315009519994,-0.3633953565580001,2.176411900209999
1699305830275,-0.7378980509519995,-0.3614569125580001,2.1552478302099987
1699305830289,-0.7249292809519995,-0.3597890865580001,2.1345252102099987
1699305830304,-0.7125708109519995,-0.3582053495580001,2.1141110702099986
1699305830317,-0.7006700009519995,-0.3566592595580001,2.0941421202099986
1699305830331,-0.6892383709519995,-0.3548605985580002,2.0744627802099984
1699305830345,-0.6777658809519995,-0.3530657715580002,2.0552020702099982
1699305830359,-0.6666170009519995,-0.3515448365580002,2.0365839002099984
1699305830373,-0.6557621109519995,-0.3503272505580002,2.018593610209998
1699305830387,-0.6448091709519995,-0.3494873514580002,2.001099300209998
1699305830401,-0.6340124109519996,-0.3487246766580002,1.983983390209998
1699305830415,-0.6230458309519996,-0.3475411756580002,1.9673882802099985
1699305830429,-0.6120096609519996,-0.3461757116580002,1.9516539502099983
1699305830442,-0.6010153709519996,-0.3445525906580002,1.9368880002099984
1699305830457,-0.5897852009519996,-0.3427355946580002,1.9231842802099983
1699305830471,-0.5784139609519996,-0.3416837476580002,1.9102680002099983
1699305830486,-0.5673277709519996,-0.3415654667580002,1.8981266902099985
1699305830498,-0.5563017109519997,-0.3421626674580003,1.8866672302099985
1699305830512,-0.5454104109519996,-0.3432526214580003,1.8758008402099984
1699305830526,-0.5348030509519996,-0.3444719834580003,1.8653535202099985
1699305830539,-0.5244897809519996,-0.3453266747580003,1.8553649892099984
1699305830554,-0.5142027009519996,-0.3460931858580002,1.8457642412099984
1699305830568,-0.5040417209519996,-0.3466026098580002,1.8366155472099983
1699305830582,-0.4942898319519996,-0.3469007379580002,1.8279399262099985
1699305830595,-0.4847737759519996,-0.3475213192580002,1.8198520042099984
1699305830609,-0.4757566269519996,-0.3480761990580002,1.812435927209998
1699305830623,-0.4670848479519996,-0.3488537311580002,1.805722327209998
1699305830637,-0.4591149019519996,-0.3499510601580002,1.799570526209998
1699305830652,-0.4515575389519996,-0.3513479371580002,1.7939230412099982
1699305830665,-0.4447419979519996,-0.3528513621580002,1.7885617942099985
1699305830679,-0.4384970059519996,-0.3542546011580002,1.7836932342099985
1699305830693,-0.4326177889519996,-0.3551482031580002,1.7794431342099983
1699305830706,-0.4270690859519996,-0.3555054494580002,1.7759123762099984
1699305830720,-0.4220244589519996,-0.3553784261580002,1.7730839182099984
1699305830734,-0.4174839989519996,-0.3552165092580002,1.7710142602099983
1699305830748,-0.4134065379519996,-0.3550102725580003,1.7695167352099983
1699305830761,-0.4098207569519996,-0.3552542958580003,1.7685857389099986
1699305830775,-0.4072376479519995,-0.3559807801580003,1.7681186584099986
1699305830790,-0.4053229359519996,-0.3574000401580002,1.7680287879899983
1699305830803,-0.4037664339519995,-0.3589639201580002,1.7684803562899984
1699305830818,-0.4028838319519995,-0.3611107251580002,1.7693320226899985
1699305830831,-0.4026887045519995,-0.3635014701580003,1.7707749246899984
1699305830845,-0.4031213241519996,-0.3664554241580002,1.7726761376899984
1699305830859,-0.4041170143519996,-0.3703964641580002,1.7749576756899983
1699305830873,-0.4056481433519996,-0.3745508191580002,1.7777339096899984
1699305830887,-0.4076535843519996,-0.3788303021580002,1.7807653996899984
1699305830901,-0.4100040503519996,-0.3828888551580002,1.7839895356899984
1699305830915,-0.4126586023519996,-0.3866255351580002,1.7874097016899984
1699305830929,-0.4157480953519996,-0.3902358611580002,1.7907628206899984
1699305830943,-0.4190722933519996,-0.3935044801580002,1.7940301686899984
1699305830956,-0.4225815583519995,-0.3964094291580002,1.7969470536899983
1699305830970,-0.4260744473519995,-0.3986961071580002,1.7996642946899986
1699305830985,-0.4296212483519995,-0.4002854641580002,1.8022954176899983
1699305830998,-0.4332342723519995,-0.4011393283580002,1.8048178856899983
1699305831011,-0.4364265433519996,-0.4014626776580002,1.8073476926899985
1699305831026,-0.4392793843519996,-0.4010348499580002,1.8099403536899985
1699305831039,-0.4420186403519996,-0.3999812819580002,1.8124780906899984
1699305831053,-0.4445473143519996,-0.3982593499580002,1.8150359856899985
1699305831067,-0.4466662063519996,-0.3962731899580002,1.8176973456899983
1699305831081,-0.4483754873519996,-0.3943349509580002,1.8202754856899983
1699305831095,-0.4493886173519996,-0.3918389439580002,1.8229771636899983
1699305831109,-0.4499755542519996,-0.3892071689580001,1.8257225126899983
1699305831122,-0.4499475932719995,-0.3865143159580002,1.8287739466899984
1699305831137,-0.4493684788719995,-0.3837990009580002,1.8321738186899983
1699305831152,-0.4481534378719995,-0.3812319269580002,1.8360099386899984
1699305831163,-0.4463014848719995,-0.3790303779580001,1.8401398636899984
1699305831177,-0.4441812028719996,-0.3770563229580002,1.844588108689999
1699305831191,-0.4414634028719996,-0.3755922499580001,1.8495145976899987
1699305831204,-0.4381370938719995,-0.3743119249580001,1.8551752256899987
1699305831218,-0.4346804348719996,-0.3730830569580001,1.8614350126899988
1699305831232,-0.4301499718719996,-0.3719346649580001,1.8682816886899989
1699305831246,-0.4249654508719996,-0.3709885581580001,1.8754561436899988
1699305831261,-0.4194975638719996,-0.3705895790580001,1.882831250689999
1699305831274,-0.4134477968719996,-0.3705265409180001,1.890385480689999
1699305831289,-0.4067921878719996,-0.3702741703180001,1.8979492986899988
1699305831302,-0.3994959698719996,-0.3697470785180001,1.9054701326899988
1699305831316,-0.3918705268719996,-0.3693336481180001,1.9127458806899988
1699305831330,-0.3836260018719996,-0.3689554692180001,1.9197053246899989
1699305831344,-0.3748273098719996,-0.3685753866180001,1.926365747689999
1699305831358,-0.3659754508719995,-0.3683907841180001,1.9323669036899989
1699305831371,-0.3569881328719995,-0.3683212981380001,1.9379012106899989
1699305831386,-0.3480846448719995,-0.3684949217380001,1.9430418656899988
1699305831400,-0.3393696428719995,-0.3686316915380001,1.9479141036899987
1699305831414,-0.3307521358719995,-0.368641575446,1.9525200246899987
1699305831427,-0.3223249238719995,-0.3684296565460001,1.9566883566899989
1699305831441,-0.3142801418719995,-0.367796456946,1.960262695689999
1699305831455,-0.3064045498719995,-0.367362924646,1.9636524996899989
1699305831469,-0.2989094608719995,-0.3664434578460001,1.966755399689999
1699305831484,-0.2916769218719995,-0.365208399846,1.9697896516899989
1699305831497,-0.2847856608719995,-0.363950600846,1.9725070176899988
1699305831512,-0.2780435168719995,-0.362692791846,1.9750800506899988
1699305831525,-0.2711392638719995,-0.361408318846,1.9776722556899988
1699305831538,-0.2647195928719995,-0.360444265946,1.9800672126899987
1699305831552,-0.2583164098719995,-0.359918147346,1.9821957476899987
1699305831567,-0.2518950738719995,-0.359225674646,1.9840383716899987
1699305831580,-0.2455103328719995,-0.358680670346,1.9853770466899987
1699305831594,-0.2391690248719995,-0.358104200846,1.9865141616899984
1699305831607,-0.2332581918719995,-0.357285775246,1.9874412732899984
1699305831622,-0.2274258368719995,-0.356212311246,1.9881816582899987
1699305831636,-0.2219565068719995,-0.354887402246,1.9888476790899987
1699305831651,-0.2165748428719995,-0.353380222246,1.9894746343899987
1699305831663,-0.2114961628719995,-0.352147066246,1.990005906889999
1699305831677,-0.2066471298719994,-0.351211125046,1.9905632490899987
1699305831691,-0.2020201288719995,-0.350436313446,1.9911191003899984
1699305831705,-0.1975349718719995,-0.349715019146,1.9915522854899983
1699305831719,-0.1932453678719995,-0.349315448246,1.9918980695899984
1699305831734,-0.1892750028719995,-0.348724255946,1.9922066671899985
1699305831747,-0.1855058368719995,-0.348105910746,1.9924520110899984
1699305831760,-0.1817603048719995,-0.3476189212460001,1.9925539266899983
1699305831774,-0.1779406788719995,-0.347164721246,1.9927335658899985
1699305831788,-0.1743864448719995,-0.346661552246,1.9929907795899984
1699305831803,-0.1711216198719995,-0.346248202046,1.9931786124899984
1699305831817,-0.1678623118719995,-0.345979291546,1.9934121823899984
1699305831830,-0.1649422008719995,-0.345983401571,1.993624417889999
1699305831844,-0.1623105008719995,-0.346466636871,1.9937127729899984
1699305831858,-0.1597495068719995,-0.347035217071,1.9939347380899983
1699305831872,-0.1572767548719995,-0.347487629571,1.9942748828899983
1699305831886,-0.1549943448719995,-0.348006367171,1.9945569965899983
1699305831900,-0.1526584938719995,-0.348636921571,1.9946847659899984
1699305831914,-0.1504305038719995,-0.349093634171,1.9947099669399984
1699305831928,-0.1483533708719995,-0.349478379471,1.9947061706949984
1699305831941,-0.1464475728719995,-0.349934124271,1.9947247869649984
1699305831956,-0.1448119628719995,-0.350367619471,1.9947073660549983
1699305831969,-0.1435075878719995,-0.350595327471,1.9949099780549984
1699305831983,-0.1424894048719995,-0.350252981571,1.9954500052549984
1699305831997,-0.1414233588719995,-0.349517080371,1.9962825562549984
1699305832011,-0.1405243613719995,-0.348823977771,1.9972324294549983
1699305832025,-0.1403304340719995,-0.348505568271,1.9980295138549984
1699305832040,-0.1401187505719995,-0.348797213171,1.9987099958549983
1699305832053,-0.1403335387719995,-0.349213209071,1.9993493601549983
1699305832067,-0.1409304203719995,-0.349587727571,1.9999167818549983
1699305832081,-0.1420084133719995,-0.350046570771,2.0001421801549983
1699305832095,-0.1433921733719995,-0.350285605271,1.9999803102549985
1699305832108,-0.1449707433719995,-0.350497226071,1.9994173056549984
1699305832123,-0.1471305523719995,-0.350411541891,1.9985543970549984
1699305832136,-0.1495621703719995,-0.350648877191,1.9973108560549984
1699305832151,-0.1523989553719995,-0.351165881291,1.9956500430549984
1699305832164,-0.1554873123719995,-0.351775355691,1.9935661230549984
1699305832178,-0.1590157983719995,-0.352544380491,1.9909725750549985
1699305832193,-0.1622846663719995,-0.352982775891,1.9881754030549983
1699305832206,-0.1653753953719995,-0.352838357691,1.9850758600549985
1699305832220,-0.1682476903719995,-0.352054774291,1.9816889430549984
1699305832233,-0.1709734453719995,-0.350738432291,1.9777910680549984
1699305832248,-0.1732238513719995,-0.349089606291,1.9737840590549984
1699305832261,-0.1751229363719995,-0.347233286291,1.9696290130549985
1699305832275,-0.1766460493719995,-0.345669835291,1.9655390960549983
1699305832290,-0.1777984433719995,-0.344164626291,1.9615632620549983
1699305832303,-0.1791319883719995,-0.342661760291,1.9577624960549984
1699305832317,-0.1804785483719995,-0.3413067942909999,1.9540998190549987
1699305832331,-0.1818351253719995,-0.340046093291,1.9505393710549987
1699305832345,-0.1833024133719995,-0.3389721562909999,1.9469501290549984
1699305832359,-0.1847178513719995,-0.337794357291,1.9434912170549987
1699305832372,-0.1861987323719995,-0.336393101291,1.9400553370549989
1699305832386,-0.1879596823719995,-0.334498135291,1.9365389840549987
1699305832400,-0.1895506023719995,-0.332614194291,1.9330876420549987
1699305832414,-0.1911083063719995,-0.330842543291,1.9297198830549984
1699305832428,-0.1926661433719995,-0.329108416291,1.9263455410549983
1699305832442,-0.1942198513719994,-0.327365651291,1.9228991860549989
1699305832456,-0.1958945673719994,-0.325923522291,1.9192925550549984
1699305832470,-0.1973345063719994,-0.324667373291,1.9155620880549984
1699305832485,-0.1987873543719995,-0.323529653291,1.9116846840549984
1699305832498,-0.2006205453719995,-0.321870183291,1.907833820054999
1699305832511,-0.2025969453719995,-0.319720846291,1.9042492570549987
1699305832526,-0.2048051993719994,-0.317445827291,1.9008002440549987
1699305832539,-0.2069428873719994,-0.3150521642910001,1.8976319350549984
1699305832553,-0.2093099983719994,-0.3128488592910001,1.8946100310549987
1699305832568,-0.2116574533719994,-0.3109272442910001,1.8918764070549987
1699305832582,-0.2138703903719994,-0.3093063842910001,1.8894475890549989
1699305832595,-0.2160277883719994,-0.3078136902910001,1.8873852630549988
1699305832609,-0.2178728013719995,-0.3064972512910001,1.8856680810549988
1699305832623,-0.2194263333719995,-0.3054421892910001,1.8841978140549989
1699305832636,-0.2205090193719995,-0.3046358024910001,1.8828954900549988
1699305832650,-0.2211792939719994,-0.3040811767910001,1.8818217950549987
1699305832665,-0.2214612720719994,-0.3037585524910001,1.881027719254999
1699305832678,-0.2215043353319994,-0.303719037721,1.8804294031549984
1699305832692,-0.2215053615619995,-0.304080326821,1.8798123194549987
1699305832706,-0.2214548035619994,-0.3041972756210001,1.8794431310549984
1699305832720,-0.2212222503619994,-0.3043631786210001,1.8793197882549983
1699305832734,-0.2208240434619994,-0.3048002732210001,1.8794540544549985
1699305832747,-0.2202720721619994,-0.3051176494210001,1.8798172055549984
1699305832761,-0.2199336867619994,-0.3057028570210001,1.8802093635549983
1699305832775,-0.2195222775619994,-0.3061930421210001,1.8807925752549983
1699305832789,-0.2191465566619994,-0.3061565066010001,1.8816173272549983
1699305832803,-0.2184088619619994,-0.3058080120010001,1.8825975585549983
1699305832818,-0.2177744045619994,-0.3055977376010001,1.8835173557549985
1699305832832,-0.2170115673619994,-0.3053147072010001,1.8843522538549984
1699305832845,-0.2164620987619994,-0.3046635637010001,1.8851542146549984
1699305832859,-0.2159010352619994,-0.3037979735010001,1.8857694878549984
1699305832874,-0.2153634349619994,-0.3026093695010001,1.8861526131549984
1699305832888,-0.2146147136619994,-0.3017839752010001,1.8862019947849984
1699305832901,-0.2135672186619994,-0.3011377238010001,1.8859875657849985
1699305832914,-0.2124380416619994,-0.3003900640010001,1.8856459605849984
1699305832929,-0.2112585866619994,-0.2997617261010001,1.8849221683849984
1699305832942,-0.2099172346619994,-0.2991380055010001,1.883944767784998
1699305832956,-0.2085119466619994,-0.2986152027010001,1.8825157647849984
1699305832970,-0.2069449956619994,-0.2980596339010001,1.880660585784998
1699305832985,-0.2052186006619994,-0.2975312632010001,1.878299420784998
1699305832997,-0.2034212406619994,-0.2964856792010001,1.875406718784998
1699305833011,-0.2013511306619994,-0.2951724792010001,1.872141641784998
1699305833025,-0.1987422506619994,-0.2933969752010001,1.8686945887849984
1699305833039,-0.1955826776619994,-0.2909855102010001,1.8651057057849985
1699305833054,-0.1918546836619994,-0.2883264292010001,1.861554093784998
1699305833067,-0.1877400506619994,-0.2854822302010001,1.857951135784998
1699305833081,-0.1829929226619994,-0.2828172802010001,1.854389473784998
1699305833095,-0.1778517896619994,-0.2805734112010001,1.8508994187849976
1699305833109,-0.1725877926619994,-0.2787592692010001,1.8475829067849976
1699305833123,-0.1672722476619994,-0.2770553642010001,1.8445306397849976
1699305833139,-0.1619255806619994,-0.2752344752010001,1.841890006784998
1699305833151,-0.1567153896619994,-0.2732419572010001,1.8398092367849976
1699305833164,-0.1517813576619994,-0.2709819582010001,1.838166979784997
1699305833178,-0.1471858056619994,-0.268964751201,1.8369001117849977
1699305833192,-0.1425976716619994,-0.267186535201,1.8362404259849976
1699305833206,-0.1382850346619994,-0.2656863812010001,1.8362477825019976
1699305833220,-0.1343981926619994,-0.2645368722010001,1.8367496977019977
1699305833233,-0.1309038696619994,-0.2643417758010001,1.8378283097019976
1699305833248,-0.1276398026619994,-0.2643542933610001,1.839454948701997
1699305833262,-0.1245957156619994,-0.264615293061,1.8415822437019973
1699305833275,-0.1214584836619994,-0.264995671961,1.8441788317019976
1699305833290,-0.1186343616619994,-0.265494825961,1.8470061387019976
1699305833303,-0.1159312796619994,-0.266157312361,1.8499384327019976
1699305833317,-0.1133421906619994,-0.266771339461,1.8530461347019973
1699305833331,-0.1111299646619994,-0.2672635523610001,1.8562694517019973
1699305833345,-0.1089913616619994,-0.267686856061,1.8594837487019973
1699305833359,-0.1073451856619994,-0.268274944861,1.8626362097019973
1699305833372,-0.1059168956619994,-0.2690193902610001,1.8656674587019977
1699305833387,-0.1051960853619994,-0.2699682519610001,1.8685850107019977
1699305833401,-0.1048335020619994,-0.2709881849610001,1.8715810617019977
1699305833415,-0.1052240055619994,-0.271510446761,1.8745641477019976
1699305833428,-0.1060619531619994,-0.2718707271610001,1.8775302837019976
1699305833448,-0.1077597831619994,-0.2719541685410001,1.8805392087019976
1699305833456,-0.1100343131619994,-0.2715761197410001,1.8836734477019976
1699305833468,-0.1131492781619994,-0.2708997640410001,1.8869807707019977
1699305833483,-0.1168569861619994,-0.270249459041,1.8902204577019976
1699305833497,-0.1209868921619994,-0.269577448341,1.8933457047019977
1699305833511,-0.1257261431619994,-0.269164844141,1.8964092317019976
1699305833525,-0.1307521611619994,-0.268662040941,1.8996554267019976
1699305833539,-0.1359378871619994,-0.267958626541,1.9031436627019973
1699305833553,-0.1412308941619994,-0.267220741541,1.9068224637019973
1699305833568,-0.1464586701619994,-0.266419275941,1.9107657957019968
1699305833581,-0.1513937601619994,-0.2657334675410001,1.9152018137019973
1699305833595,-0.1562529001619994,-0.265515277541,1.9200162467019968
1699305833608,-0.1608642831619994,-0.265557782641,1.9251836217019973
1699305833623,-0.1646779981619994,-0.266204348541,1.930659873701997
1699305833636,-0.1683797031619994,-0.267444531541,1.9362431857019973
1699305833650,-0.1714643021619994,-0.268795712541,1.9420109747019976
1699305833664,-0.1743215531619994,-0.270038799541,1.9479135127019973
1699305833679,-0.1770395131619994,-0.271174357541,1.9538357517019973
1699305833693,-0.1792923401619994,-0.272067799241,1.9598291827019976
1699305833706,-0.1816723141619994,-0.272816537541,1.9655083607019976
1699305833720,-0.1837600041619994,-0.273730309841,1.9708216377019976
1699305833734,-0.1856703921619994,-0.274659548541,1.9759967327019976
1699305833748,-0.1876139841619994,-0.275401859641,1.9809971557019976
1699305833761,-0.1895164671619994,-0.276355643941,1.9858241347019976
1699305833775,-0.1912189311619994,-0.277355462941,1.9904242787019977
1699305833789,-0.1929856681619994,-0.278771817941,1.9948460717019976
1699305833803,-0.1946479951619994,-0.2801926299409999,1.9991454497019976
1699305833818,-0.1962190171619994,-0.2811616466409999,2.003301455701997
1699305833832,-0.1974428271619994,-0.2818437142409999,2.0074713597019973
1699305833845,-0.1982846610619994,-0.282041041241,2.011609210701997
1699305833859,-0.1989926779619994,-0.282045167291,2.0156916157019973
1699305833873,-0.1992366512619994,-0.282138162581,2.0197147867019973
1699305833887,-0.1991940337119994,-0.282425154981,2.0236949717019974
1699305833901,-0.1985370953119994,-0.282923070081,2.0273774817019974
1699305833915,-0.1975443021119994,-0.283573548281,2.031070686701997
1699305833928,-0.1963739021119994,-0.2845486073810001,2.034623329701997
1699305833942,-0.1950836381119993,-0.2856248493810001,2.0380264177019973
1699305833956,-0.1934113241119993,-0.2864097652810001,2.041290643701997
1699305833970,-0.1919495421119993,-0.2870498305810001,2.0443528067019976
1699305833986,-0.1904601501119993,-0.2874938273810001,2.0473162807019976
1699305833998,-0.1889637361119993,-0.2876365053810001,2.0502243657019976
1699305834011,-0.1876020581119993,-0.2874531327810001,2.0530187497019976
1699305834025,-0.1862077351119993,-0.2868664062810001,2.055577160701997
1699305834039,-0.1850553981119993,-0.2863118467810001,2.057860705701997
1699305834053,-0.1838408361119993,-0.2861792632810001,2.0600056097019976
1699305834067,-0.1827432641119993,-0.286186739036,2.0619947607019977
1699305834081,-0.1813814991119993,-0.285727025836,2.064020157701998
1699305834095,-0.1804487325119994,-0.2851978154360001,2.0658217637019978
1699305834108,-0.1797414261119994,-0.2843547255360001,2.0674456797019976
1699305834123,-0.1788689813119993,-0.2832254985360001,2.0691151967019974
1699305834137,-0.1784835469119993,-0.2821359525360001,2.0707238027019974
1699305834151,-0.1783158121119993,-0.2813588705360001,2.072285381701997
1699305834164,-0.1786826161119993,-0.2805177247360001,2.073708204701997
1699305834178,-0.1792808935119993,-0.2796669222360001,2.0751908397019974
1699305834192,-0.1803228115119994,-0.2785970082360001,2.0767728317019976
1699305834206,-0.1816846105119993,-0.2777084716360001,2.0784346187019977
1699305834220,-0.1834381945119994,-0.2770648987360001,2.0800724647019977
1699305834234,-0.1859420665119993,-0.2764296354360001,2.0817811277019977
1699305834248,-0.1890583945119993,-0.275784357536,2.083616587701998
1699305834262,-0.1925510135119993,-0.275080661236,2.0857091517019977
1699305834275,-0.1966032215119993,-0.274220915036,2.088161578701998
1699305834290,-0.2009739615119994,-0.273284577636,2.090815330701998
1699305834304,-0.2057153245119994,-0.2726617923360001,2.0936146457019977
1699305834318,-0.2109323555119994,-0.272141749336,2.0966133657019976
1699305834331,-0.2165370385119994,-0.271723941436,2.099922252701998
1699305834345,-0.2223016355119994,-0.271414217536,2.103661430701998
1699305834359,-0.2285960525119994,-0.271088900436,2.107725039701998
1699305834373,-0.2353799945119994,-0.270948159036,2.112378975701998
1699305834387,-0.2427581335119994,-0.271003227606,2.117599173701998
1699305834401,-0.2505305135119994,-0.271607603406,2.123581834701998
1699305834415,-0.2590183115119994,-0.272424623006,2.130303792701998
1699305834429,-0.2681324615119994,-0.2738447630060001,2.137841480701998
1699305834442,-0.2778608315119993,-0.2756417120060001,2.1461539967019982
1699305834457,-0.2881713615119993,-0.2774513570060001,2.155404454701998
1699305834470,-0.2988834115119994,-0.2796458620060001,2.1653897257019983
1699305834484,-0.3101386315119994,-0.2823979010060001,2.1759396957019983
1699305834498,-0.3219936815119993,-0.2852137970060001,2.1868492357019984
1699305834512,-0.3344920815119994,-0.2879554090060001,2.1981855057019986
1699305834526,-0.3477775915119994,-0.290203919006,2.209845565701998
1699305834540,-0.3619885115119994,-0.2916489940060001,2.2217076357019985
1699305834554,-0.3766407015119994,-0.2927909830060001,2.2335889357019987
1699305834568,-0.3921590915119994,-0.293314681206,2.2454150857019988
1699305834581,-0.4085238315119994,-0.293557494006,2.257286755701999
1699305834595,-0.4255448215119994,-0.293512387546,2.2694185357019987
1699305834609,-0.4432326915119994,-0.293732775746,2.2819617057019985
1699305834623,-0.4620101115119994,-0.294378426346,2.2949332557019986
1699305834636,-0.4814669515119993,-0.295357529646,2.3084941457019985
1699305834651,-0.5016760415119994,-0.296223868646,2.322578415701998
1699305834664,-0.5224907515119994,-0.296870983546,2.3372171757019986
1699305834679,-0.5438568115119994,-0.297652250346,2.3525943957019986
1699305834693,-0.5659931715119993,-0.2982073864460001,2.3685733157019984
1699305834706,-0.5885970615119993,-0.299056364846,2.3853937857019982
1699305834720,-0.6120413415119993,-0.300302980846,2.4029768757019982
1699305834734,-0.6360315615119992,-0.301878261846,2.4217325857019985
1699305834748,-0.6603266415119993,-0.303603916846,2.4415175157019986
1699305834761,-0.6854273715119993,-0.305380965846,2.4624248257019987
1699305834776,-0.7113143315119993,-0.3075166438459999,2.4843584657019986
1699305834790,-0.7379969215119992,-0.3098406148459999,2.5074896657019985
1699305834803,-0.7654804715119993,-0.3124347438459999,2.5316055757019984
1699305834818,-0.7936014515119992,-0.3154140018459999,2.556728645701998
1699305834831,-0.8224039315119992,-0.3185689588459999,2.582890775701998
1699305834845,-0.8520075915119992,-0.3220202668459999,2.610074945701998
1699305834859,-0.8824076715119993,-0.3256897228459999,2.638348185701998
1699305834873,-0.9136051215119992,-0.3296194068459999,2.667663455701998
1699305834887,-0.9455887815119992,-0.3336267778459999,2.6980349557019982
1699305834900,-0.9779765115119992,-0.3381179178459999,2.7292968357019984
1699305834915,-1.0111343215119992,-0.3429537168459999,2.7614346457019985
1699305834930,-1.0449427315119992,-0.3477326688459999,2.7943763257019985
1699305834942,-1.0792618415119992,-0.3529040668459999,2.8280625757019986
1699305834956,-1.114012091511999,-0.3579476058459999,2.8626431157019985
1699305834970,-1.1492116015119993,-0.3628410808459998,2.8981740057019985
1699305834985,-1.1847499815119993,-0.3675188508459999,2.9346708957019985
1699305834998,-1.2206406515119992,-0.3721121528459999,2.9719153457019987
1699305835012,-1.257125941511999,-0.3768287748459999,3.0098974257019986
1699305835026,-1.2939672115119991,-0.3817826728459999,3.0485342257019985
1699305835039,-1.3313939315119991,-0.3870628488459999,3.0877862257019983
1699305835053,-1.369176591511999,-0.3926711578459999,3.127919985701998
1699305835067,-1.407367791511999,-0.3983267288459999,3.1688522957019982
1699305835082,-1.445732141511999,-0.4040239818459999,3.2107378957019983
1699305835095,-1.484433101511999,-0.409441024846,3.2536814357019983
1699305835109,-1.523338021511999,-0.414703382846,3.2977135857019984
1699305835123,-1.5624411615119989,-0.420115909846,3.3428975157019982
1699305835137,-1.6016974515119988,-0.425746344846,3.3892913157019984
1699305835151,-1.6411719415119987,-0.431870098846,3.4368172757019986
1699305835164,-1.6808794715119988,-0.4380723928459999,3.4855670657019986
1699305835178,-1.7210711415119988,-0.444216925846,3.5356444957019986
1699305835192,-1.7614200315119988,-0.4501595798459999,3.5875336557019986
1699305835206,-1.8022504115119988,-0.456323806846,3.6411446157019984
1699305835220,-1.8435324715119987,-0.462547050846,3.6965896657019983
1699305835234,-1.8854784015119987,-0.468582753846,3.754026295702
1699305835248,-1.9277104015119988,-0.474759396846,3.813763535701999
1699305835261,-1.9706806615119987,-0.481241294846,3.8760738657019984
1699305835275,-2.014916151511999,-0.487810825846,3.941316715701999
1699305835289,-2.0600965015119987,-0.494774520846,4.009411305701999
1699305835304,-2.106199121511999,-0.502285508846,4.080159695701999
1699305835318,-2.153515481511999,-0.510989809846,4.153353145701999
1699305835331,-2.2020804115119987,-0.520487424846,4.228948045701999
1699305835345,-2.251776471511999,-0.530394851846,4.307003765701999
1699305835359,-2.302591681511999,-0.540022644846,4.387672625701999
1699305835372,-2.354659621511999,-0.549540666846,4.470792955701999
1699305835387,-2.408036851511999,-0.559266652846,4.556080885701999
1699305835401,-2.462540021511999,-0.569122658846,4.643699665701998
1699305835416,-2.518004761511999,-0.578822729846,4.733596825701998
1699305835429,-2.574847081511999,-0.587924731846,4.825820035701998
1699305835442,-2.632763201511999,-0.596223275846,4.920329465701999
1699305835456,-2.691542751511999,-0.604291937846,5.016796175701998
1699305835471,-2.751428681511999,-0.612288437846,5.115005265701998
1699305835484,-2.812415141511999,-0.620995712846,5.214682995701998
1699305835498,-2.874278851511999,-0.6299629638459999,5.315627195701998
1699305835512,-2.936511631511999,-0.6387372018459999,5.418096595701998
1699305835526,-2.999131371511999,-0.6470772548459999,5.522068895701998
1699305835539,-3.061854381511999,-0.6553625918459999,5.627329295701998
1699305835554,-3.1244935015119992,-0.6639008758459999,5.733863495701997
1699305835567,-3.1867335615119994,-0.6738055328459999,5.841514695701997
1699305835581,-3.2480847815119995,-0.6850391228459999,5.950112295701998
1699305835595,-3.307801471512,-0.6975242628459999,6.059530295701998
1699305835609,-3.365550481512,-0.7105620228459999,6.169843795701998
1699305835623,-3.421240711512,-0.7242209028459999,6.280696895701998
1699305835637,-3.474565111512,-0.7373518028459999,6.3921953957019975
1699305835651,-3.525395851512,-0.7491540828459999,6.504458295701998
1699305835664,-3.573683411512,-0.7596920528459999,6.617496595701998
1699305835679,-3.619469651512,-0.769821352846,6.731158695701998
1699305835692,-3.662567901512,-0.780230622846,6.845616295701998
1699305835706,-3.702976251512,-0.790656632846,6.961120495701998
1699305835720,-3.740375651512,-0.801028932846,7.077986295701998
1699305835734,-3.775008681512,-0.811538332846,7.195960195701998
1699305835747,-3.806831351512,-0.8226151228459999,7.314687195701998
1699305835761,-3.836040551512,-0.834128882846,7.433883895701998
1699305835775,-3.862634651512,-0.8457045128459999,7.553631495701998
1699305835790,-3.886521041512,-0.8564580328459999,7.674083295701997
1699305835803,-3.908168271512,-0.8661708878459998,7.795038095701997
1699305835818,-3.927335551512,-0.8740820388459998,7.916664995701997
1699305835831,-3.944228061512,-0.8794447988459998,8.039293795701997
1699305835845,-3.958665371512,-0.8811999848459998,8.163400695701997
1699305835860,-3.970764141512,-0.8789289478459998,8.289505795701997
1699305835873,-3.980363860512,-0.8732711838459999,8.418306795701996
1699305835887,-3.987523920512,-0.8655550668459999,8.550045895701997
1699305835901,-3.991932954512,-0.8570401918459999,8.685251795701998
1699305835915,-3.993778347512,-0.8488165218459999,8.824497995701998
1699305835929,-3.992640703512,-0.8415311928459999,8.968510695701998
1699305835943,-3.988095946512,-0.8365126308459999,9.117987595701996
1699305835956,-3.979938674512,-0.8345565688459999,9.273213695701996
1699305835970,-3.968182964512,-0.8360224078459999,9.434574995701997
1699305835985,-3.952912874512,-0.8405843278459999,9.601547795701997
1699305835998,-3.934326384512,-0.8475416208459999,9.774316795701996
1699305836012,-3.912899484512,-0.8561382698459999,9.952949995701998
1699305836026,-3.888369904512,-0.866129393846,10.137759895701995
1699305836039,-3.860720354512,-0.876784113846,10.328460895701998
1699305836053,-3.829756144512,-0.8867277088459999,10.525046195701998
1699305836067,-3.795024264512,-0.895869679846,10.727566395702
1699305836081,-3.756825774512,-0.904025966846,10.935513395702
1699305836095,-3.714588924512,-0.911461792846,11.149075295702
1699305836109,-3.667779804512,-0.918226094846,11.368327895702
1699305836123,-3.616336834512,-0.923700297846,11.593068695702
1699305836138,-3.560491064512,-0.928697910846,11.823285395702
1699305836151,-3.500275634512,-0.933712685846,12.059042995702
1699305836164,-3.4355735245120003,-0.939359261846,12.300176495702
1699305836178,-3.3664976645120004,-0.945623691846,12.546773795701998
1699305836192,-3.292527474512001,-0.951967551846,12.799537295702
1699305836206,-3.2136438645120005,-0.957926437846,13.058334695702
1699305836220,-3.1298969645120005,-0.963971673846,13.323260395702
1699305836234,-3.0410682245120007,-0.970469223846,13.594617495701998
1699305836249,-2.947670394512001,-0.977521506846,13.871914095701998
1699305836262,-2.849210794512001,-0.985122320846,14.155392295701995
1699305836276,-2.745911894512001,-0.992676132846,14.444982295701998
1699305836290,-2.637743394512001,-1.000712221846,14.740514795701998
1699305836304,-2.5243271945120007,-1.008657255846,15.042179995701998
1699305836318,-2.4053610945120005,-1.016623079846,15.349968495701996
1699305836332,-2.2810135945120007,-1.0243828128460002,15.663570695701996
1699305836345,-2.151145194512001,-1.0324226118460005,15.982845795701998
1699305836359,-2.0159483945120007,-1.0408518778460003,16.307777995701997
1699305836373,-1.8751947945120009,-1.0494020338460004,16.638567595701996
1699305836387,-1.7291323945120007,-1.0559922998460003,16.975820295701997
1699305836402,-1.5780378945120008,-1.0536012358460003,17.321918195701997
1699305836417,-1.4219226945120007,-1.0303972658460003,17.680850495701996
1699305836429,-1.2606067945120008,-0.9865515458460004,18.051676895701995
1699305836442,-1.095161394512001,-0.9345780858460004,18.431297895701995
1699305836457,-0.9270912945120008,-0.8832120058460003,18.816800595701995
1699305836470,-0.7579058945120006,-0.8317944058460004,19.208316195702
1699305836485,-0.5891844945120006,-0.7758157258460003,19.606678195702
1699305836498,-0.4204383945120006,-0.7153028958460004,20.010836495701994
1699305836512,-0.2512837945120006,-0.6536874958460004,20.418215195702
1699305836526,-0.0818116945120006,-0.5945846358460004,20.826810595702
1699305836539,0.0862409054879993,-0.5394035658460004,21.234782495701992
1699305836553,0.2516007054879994,-0.4870361558460003,21.641080195701992
1699305836568,0.4137017054879994,-0.4369761858460003,22.04519929570199
1699305836581,0.5723761054879994,-0.3892536758460003,22.44593629570199
1699305836595,0.7276580054879994,-0.3453580258460003,22.842356495701992
1699305836609,0.8789669054879994,-0.3070078058460003,23.233700295702
1699305836623,1.0252771054879994,-0.2769454958460003,23.618666595701992
1699305836637,1.1669134054879997,-0.2573688658460004,23.996794395702
1699305836651,1.3034164054879995,-0.2499446288460003,24.368005095701992
1699305836665,1.4348891054879995,-0.2509342942460004,24.73384879570199
1699305836679,1.5599385054879995,-0.2547981302460004,25.09597989570199
1699305836693,1.6775952054879997,-0.2569133382460004,25.45574169570199
1699305836706,1.7876331054879997,-0.2555273202460004,25.813493995702
1699305836721,1.8900989054879995,-0.2502491572460004,26.169256995702
1699305836735,1.984264395488,-0.2405152702460004,26.522890095701992
1699305836748,2.070664795488,-0.2253527902460003,26.875097195702
1699305836762,2.149622035487999,-0.2041017902460004,27.226736495701992
1699305836775,2.220674525487999,-0.1779986402460004,27.57853909570199
1699305836789,2.284432635488,-0.1494401702460004,27.93125649570199
1699305836803,2.3416955154879995,-0.1187053702460003,28.286210695702
1699305836818,2.393040495488,-0.0846418102460004,28.644865895702
1699305836832,2.439026615488,-0.0481687702460004,29.007768695701994
1699305836845,2.481304335488,-0.0133869902460004,29.374583095702
1699305836859,2.520683335487999,0.0153433197539995,29.745391095702
1699305836873,2.557709295487999,0.0364829097539995,30.120553295701992
1699305836887,2.593093425487999,0.0493008597539995,30.501113195702
1699305836901,2.626670425488,0.0543182097539995,30.888576395702
1699305836915,2.658906335487999,0.0531499717539995,31.283690795702
1699305836928,2.689802935488,0.0459784867539995,31.686877595702
1699305836942,2.719139845488,0.0325890467539995,32.098202295701995
1699305836957,2.746798245488,0.0128001867539995,32.517796295702
1699305836970,2.772162365487999,-0.0133840432460004,32.945477495702
1699305836984,2.794271215487999,-0.0446342632460004,33.381484595702
1699305836998,2.8126973954879992,-0.0795252732460004,33.824990795702
1699305837011,2.827185095488,-0.1175781132460004,34.275202295702
1699305837025,2.838068515487999,-0.1587438132460004,34.731298395702005
1699305837039,2.845116958487999,-0.2015919832460004,35.193426395702005
1699305837053,2.848482206488,-0.2449873732460004,35.661381595702004
1699305837067,2.8480609506879992,-0.2883032132460004,36.135426795702
1699305837081,2.844084218688,-0.3304077632460004,36.616037795702006
1699305837095,2.837044641688,-0.3676334032460004,37.10305779570201
1699305837109,2.827795103687999,-0.3964646732460004,37.59615979570201
1699305837123,2.816387023688,-0.4169667332460004,38.09480109570201
1699305837137,2.8033650936879995,-0.4340874232460004,38.59770749570201
1699305837151,2.7890276036879995,-0.4519419232460004,39.10522879570201
1699305837164,2.773827243688,-0.4722681632460004,39.618052295702014
1699305837178,2.758148543688,-0.4956050632460004,40.137037795702014
1699305837193,2.7419222236879994,-0.5201941332460004,40.66350989570201
1699305837206,2.724965533687999,-0.5457813632460004,41.197325295702015
1699305837221,2.7075112336879994,-0.5726615132460003,41.73846129570202
1699305837234,2.689488843688,-0.5998197732460003,42.286164895702015
1699305837250,2.670598613688,-0.6261902132460003,42.84022389570202
1699305837262,2.650652743688,-0.6507008532460004,43.39967039570202
1699305837276,2.6298761636879995,-0.6736864632460003,43.96376039570202
1699305837290,2.608223633688,-0.6958149432460004,44.531832195702016
1699305837304,2.586531043688,-0.7151589432460004,45.10382719570202
1699305837318,2.565778543688,-0.7220587952460004,45.682381795702014
1699305837332,2.546904613688,-0.7053334852460004,46.26984219570201
1699305837347,2.530390143688,-0.6654111752460004,46.865421395702015
1699305837360,2.516607683688,-0.6133365552460004,47.465892395702014
1699305837373,2.506444983688,-0.5577425752460003,48.06853459570201
1699305837388,2.500326343688,-0.4975854152460003,48.67377999570201
1699305837402,2.4980485226880003,-0.4274238452460003,49.28377199570201
1699305837416,2.4994658616880003,-0.3491101552460003,49.89837659570201
1699305837431,2.5043532786880003,-0.2702662952460004,50.51511369570201
1699305837444,2.513150432688,-0.1976544452460003,51.131609395702014
1699305837457,2.525661742688,-0.1362457352460003,51.74549869570201
1699305837471,2.542323472688,-0.0902364352460003,52.35512769570201
1699305837485,2.563550842688,-0.0637073552460003,52.95953239570201
1699305837499,2.589671742688,-0.0566437682460003,53.55852029570201
1699305837513,2.620972392688,-0.0673360582460003,54.15218399570201
1699305837526,2.657077872688,-0.0913401682460003,54.741070695702014
1699305837540,2.697753062688,-0.1229403382460003,55.326017295702016
1699305837554,2.743694652688,-0.1550788982460003,55.907793395702015
1699305837569,2.794871792688,-0.1831821782460003,56.48608849570201
1699305837583,2.851186182688,-0.2056133282460003,57.059860095702014
1699305837596,2.912773132688,-0.2214923682460003,57.62742519570202
1699305837610,2.980182062688,-0.2287639332460004,58.188286495702016
1699305837624,3.053025762688,-0.2245330732460004,58.74283749570202
1699305837637,3.130341182688,-0.2077545732460003,59.29210269570202
1699305837652,3.211014002688,-0.1810953132460004,59.83665509570202
1699305837666,3.295225192688,-0.1491091832460004,60.37643799570202
1699305837679,3.3824717326880003,-0.1175831632460003,60.91151239570202
1699305837693,3.472191872688,-0.0907088732460004,61.44203099570202
1699305837707,3.562894972688,-0.0700567932460003,61.96918129570202
1699305837721,3.653026912688,-0.0576257332460003,62.49375379570202
1699305837735,3.742445742688,-0.0551356112460003,63.01690509570202
1699305837749,3.830635132688,-0.0631712672460003,63.53920319570202
1699305837762,3.917680132688,-0.0813925272460003,64.06142759570203
1699305837776,4.004157682688,-0.1085500272460004,64.58446989570203
1699305837790,4.090129142687999,-0.1431471172460003,65.10856159570203
1699305837804,4.175750392687999,-0.1846033372460003,65.63343559570203
1699305837820,4.261367012687999,-0.2315738072460003,66.15888029570202
1699305837832,4.347369002687999,-0.2827050172460003,66.68435229570201
1699305837845,4.434297042687999,-0.3354154972460003,67.20955279570201
1699305837860,4.523607792687999,-0.3878660772460003,67.734182195702
1699305837874,4.615949082687999,-0.4384235472460003,68.258040495702
1699305837888,4.712105872687999,-0.4864833272460003,68.78123739570201
1699305837903,4.812516272688,-0.5312936272460003,69.30361879570201
1699305837915,4.917361572688,-0.5724196272460003,69.82517289570201
1699305837929,5.027209772688,-0.6096794872460003,70.34588419570201
1699305837943,5.142164472688,-0.6437718572460003,70.86574079570201
1699305837957,5.262656672688,-0.6746795072460002,71.385124895702
1699305837970,5.388466972688001,-0.7014079872460002,71.905038695702
1699305837986,5.519797772688,-0.7230156572460001,72.426466895702
1699305837998,5.656906372688001,-0.7401243272460002,72.95007169570201
1699305838012,5.7993888726880005,-0.7547719472460002,73.475883595702
1699305838025,5.947186672688001,-0.7673116072460001,74.003971495702
1699305838040,6.099764972688001,-0.7795019672460001,74.534137895702
1699305838054,6.256675472688001,-0.7921874072460001,75.065793495702
1699305838067,6.417116772688001,-0.8064474272460002,75.598010195702
1699305838081,6.580404072688001,-0.8207312072460001,76.130821395702
1699305838095,6.746901272688001,-0.8213832161460001,76.668559295702
1699305838109,6.9183981726880015,-0.788228506146,77.216537295702
1699305838123,7.093544672688002,-0.7316168661460001,77.769914195702
1699305838137,7.270575772688002,-0.6650134261460001,78.326821295702
1699305838151,7.449470672688002,-0.5905426961460001,78.885354295702
1699305838165,7.630395472688002,-0.5023867661460001,79.447601195702
1699305838178,7.812763372688002,-0.401975966146,80.013469195702
1699305838192,7.9947479726880015,-0.2943368661460001,80.581776695702
1699305838206,8.174541572688002,-0.186560166146,81.15013799570201
1699305838220,8.349621572688001,-0.086260666146,81.71621769570201
1699305838234,8.518137872688001,-0.000346826146,82.27782269570201
1699305838248,8.678658572688,0.0674893738539999,82.83365179570201
1699305838262,8.829618872688,0.1191522038539999,83.38393399570201
1699305838275,8.971340672688001,0.1611013038539999,83.93073399570201
1699305838290,9.103961872688,0.1992142938539999,84.47550389570202
1699305838304,9.227533672688,0.2342971138539999,85.01833939570201
1699305838318,9.341683872688,0.264288583854,85.55835409570201
1699305838331,9.447325272688,0.288574583854,86.09487719570201
1699305838345,9.543459602688,0.3100846838539999,86.62766409570202
1699305838359,9.630806902688,0.3332862738539999,87.15742959570201
1699305838372,9.710602112688,0.3613325938539999,87.68455189570201
1699305838386,9.784755802687998,0.393515283854,88.20924749570202
1699305838400,9.854407242687998,0.427553813854,88.73151179570202
1699305838414,9.920215452687998,0.461970343854,89.25210529570202
1699305838428,9.982992662687998,0.495938943854,89.77207939570202
1699305838443,10.042874362687998,0.528606923854,90.29247259570202
1699305838456,10.100931952688,0.5577404738539999,90.81442689570204
1699305838470,10.157654592688,0.5808468138539999,91.33888849570202
1699305838484,10.212956442687998,0.594996933854,91.86699349570202
1699305838498,10.266453532688,0.599699343854,92.39923939570204
1699305838512,10.317951112687998,0.595626963854,92.93663239570202
1699305838526,10.367369952687998,0.583271733854,93.48019159570202
1699305838539,10.414860842687998,0.562270163854,94.02982549570204
1699305838553,10.460463092687998,0.532309503854,94.58603099570205
1699305838568,10.503956212688,0.494383313854,95.14949089570204
1699305838581,10.545361682688,0.450991423854,95.72020699570204
1699305838595,10.584477592688,0.403226783854,96.29763389570203
1699305838609,10.620272002688,0.349510133854,96.88153139570204
1699305838623,10.653023722688,0.291131823854,97.47133699570205
1699305838636,10.682639242688,0.230955883854,98.06711639570204
1699305838650,10.709133002688,0.170593573854,98.66883329570204
1699305838665,10.732221472687998,0.109794103854,99.27567229570204
1699305838679,10.751990162687996,0.046542363854,99.88684239570205
1699305838693,10.768414222687998,-0.0194052361459999,100.50185719570204
1699305838706,10.781191102687998,-0.0858218261459999,101.12162769570205
1699305838720,10.790046922688,-0.1510304961459999,101.74685589570204
1699305838735,10.795026383688,-0.2148407361459999,102.37769359570204
1699305838749,10.796542040688,-0.2783911361459999,103.01416569570203
1699305838762,10.794432006688,-0.3427500561459999,103.65578279570204
1699305838776,10.788414828688,-0.4066970461459999,104.30287219570204
1699305838790,10.778805397688,-0.4691148261459998,104.95467499570204
1699305838803,10.765414187688,-0.5297601261459999,105.61057109570204
1699305838818,10.748399747688,-0.5891782561459998,106.26924689570204
1699305838833,10.728571967688,-0.6476495861459999,106.92922219570204
1699305838846,10.706555487688,-0.7046883961459999,107.58844279570204
1699305838860,10.683823677688,-0.7554120861459999,108.24690899570204
1699305838874,10.663165567688,-0.7747910361459999,108.91122639570204
1699305838888,10.646309697688,-0.7507857761459998,109.58139549570204
1699305838901,10.632576637688,-0.7013205761459999,110.25547849570204
1699305838915,10.621656177688,-0.6359042961459999,110.93113139570204
1699305838929,10.612903563688,-0.5557836661459998,111.60893789570204
1699305838944,10.605523525688,-0.4665122261459998,112.28980929570204
1699305838957,10.600448428688,-0.3767912061459998,112.97241269570203
1699305838971,10.597647785687998,-0.2974754461459998,113.65363789570203
1699305838986,10.596798121487998,-0.2380305961459998,114.33028709570203
1699305838999,10.597209333887998,-0.2042554761459998,114.99879249570203
1699305839013,10.599234103887998,-0.1934587461459998,115.65753169570203
1699305839027,10.603529184887998,-0.1978858111459998,116.30625399570204
1699305839041,10.612068235887998,-0.2060360631459998,116.94718319570204
1699305839054,10.626351105887998,-0.2063621890459998,117.58201949570206
1699305839069,10.646632925887998,-0.1923807290459998,118.21336619570204
1699305839083,10.672823965887998,-0.1655466190459998,118.84086859570203
1699305839096,10.704345465887998,-0.1314052990459998,119.46264409570205
1699305839111,10.740365375888,-0.0943755590459998,120.07829229570204
1699305839124,10.780455135888,-0.0549099890459998,120.68873259570204
1699305839139,10.825138295888,-0.0116185590459998,121.29546619570203
1699305839152,10.875474295888,0.0345089209540001,121.89961969570204
1699305839164,10.931099365888,0.0806034909540001,122.50193589570203
1699305839179,10.992903065888,0.1227281409540001,123.10267559570204
1699305839192,11.060812885888,0.1575604209540001,123.70239249570204
1699305839206,11.134635635888,0.1834665409540001,124.30165099570203
1699305839221,11.214635425888,0.1992943909540001,124.90066789570204
1699305839234,11.300762705888,0.2042181279540001,125.49948539570204
1699305839248,11.393221385888,0.1970326859540001,126.09809569570204
1699305839262,11.491938835888,0.1794917559540001,126.69701319570204
1699305839276,11.597401135888,0.1535288859540001,127.29699819570205
1699305839290,11.709749535888,0.1204002059540001,127.89863249570205
1699305839304,11.829084235888,0.0795347959540001,128.50191579570205
1699305839318,11.954282435888,0.0304757359540001,129.10635649570204
1699305839331,12.085686335888,-0.0267883740459998,129.71125759570205
1699305839345,12.223602035888,-0.0907478140459998,130.31599009570206
1699305839359,12.368200335888,-0.1594480040459998,130.91988609570203
1699305839373,12.519010535888,-0.2318885340459998,131.52243339570205
1699305839387,12.675535835888,-0.3074452440459998,132.12327569570206
1699305839401,12.837086135888,-0.3850829740459998,132.72222099570206
1699305839415,13.004002535888,-0.4626450640459998,133.32033839570207
1699305839428,13.175938935888,-0.5385919640459998,133.91837869570207
1699305839442,13.352448035888,-0.6108915740459998,134.51742869570208
1699305839457,13.532933235888,-0.6791423740459999,135.11804279570208
1699305839470,13.716796635888,-0.7428335540459998,135.72105969570208
1699305839484,13.903368535888,-0.8015588340459998,136.32676319570209
1699305839498,14.092785735888,-0.8554013140459998,136.93536469570208
1699305839512,14.284719135888,-0.9048887640459998,137.54655319570207
1699305839526,14.479188835888,-0.9497844440459998,138.16048309570206
1699305839540,14.676678135888002,-0.9893726840459998,138.77734159570207
1699305839553,14.877692735888004,-1.0230217940459998,139.39701649570208
1699305839567,15.082617835888003,-1.051029424046,140.01915689570208
1699305839582,15.291014835888005,-1.074935074046,140.64327119570208
1699305839595,15.502680835888002,-1.094865604046,141.26847489570207
1699305839609,15.716595835888002,-1.111441474046,141.89344029570208
1699305839623,15.932191435888004,-1.124481484046,142.51712189570208
1699305839637,16.150231035888,-1.119602583046,143.14460169570208
1699305839651,16.373457435888003,-1.073092903046,143.78102829570207
1699305839665,16.598963035888005,-1.003534283046,144.41884529570208
1699305839679,16.824129235888005,-0.929698593046,145.0584072957021
1699305839693,17.049109335888005,-0.8528166130459999,145.6983955957021
1699305839706,17.273585435888005,-0.7748736430459999,146.3410706957021
1699305839720,17.496801935888005,-0.6984703230459999,146.98661149570208
1699305839735,17.717023235888004,-0.6313202930459999,147.6324008957021
1699305839748,17.931369635888004,-0.583153363046,148.2746717957021
1699305839761,18.136847935888003,-0.560154413046,148.91015479570208
1699305839775,18.331490835888005,-0.558485523046,149.5387054957021
1699305839789,18.515962935888005,-0.561829883046,150.16404319570208
1699305839803,18.690883735888004,-0.553239910046,150.78938309570208
1699305839818,18.856468635888003,-0.5232555900460001,151.41750439570208
1699305839831,19.012380735888,-0.4777439100460001,152.04780469570207
1699305839845,19.158026235888,-0.4264066700460001,152.67754549570208
1699305839859,19.293549635888,-0.373899560046,153.30645249570208
1699305839872,19.420205735888004,-0.3184214500460001,153.93472799570208
1699305839886,19.539091635888003,-0.257962210046,154.56361999570208
1699305839900,19.652161135888004,-0.194059610046,155.19382159570208
1699305839915,19.76027463588801,-0.130179450046,155.82515609570208
1699305839928,19.86468113588801,-0.069499390046,156.45815339570208
1699305839942,19.966551735888007,-0.014807050046,157.0925047957021
1699305839956,20.066987935888008,0.0303950499539999,157.7281690957021
1699305839970,20.166726665888007,0.0642608299539999,158.3650903957021
1699305839984,20.265755265888007,0.0861294699539999,159.00340289570212
1699305839997,20.36387865588801,0.0978178599539999,159.64340349570213
1699305840011,20.46081230588801,0.1007680649539999,160.28557459570214
1699305840025,20.55660512588801,0.0971492229539999,160.93069339570215
1699305840039,20.65046862588801,0.0874895739539999,161.57973919570216
1699305840053,20.74152109588801,0.0721561439539999,162.23311579570216
1699305840067,20.82866253588801,0.0512681739539999,162.89177589570215
1699305840082,20.91164357588801,0.0253955639539999,163.55672259570215
1699305840095,20.99011562588801,-0.003950056046,164.22916339570216
1699305840108,21.06399990588801,-0.038252466046,164.90981109570217
1699305840123,21.13301990588801,-0.079518926046,165.59812399570217
1699305840137,21.197212855888008,-0.127372956046,166.29459409570217
1699305840151,21.25644926588801,-0.181232506046,166.99959239570217
1699305840165,21.31059284588801,-0.241197126046,167.71217979570216
1699305840179,21.35996080588801,-0.306617466046,168.43202369570216
1699305840192,21.40435964588801,-0.377245826046,169.15838309570216
1699305840205,21.44355342588801,-0.452145966046,169.89096659570217
1699305840220,21.47785026588801,-0.5300696560460001,170.62996389570216
1699305840234,21.507108545888013,-0.6095621460460001,171.37588459570216
1699305840248,21.531556045888014,-0.6884672260460001,172.12881649570215
1699305840261,21.55077887588801,-0.7655230560460001,172.88900119570215
1699305840275,21.564598485888013,-0.8404341660460002,173.65609649570214
1699305840289,21.57308845188801,-0.9132252660460002,174.42979919570217
1699305840303,21.57613976288801,-0.9843728460460002,175.2097385957021
1699305840318,21.574192061888013,-1.0538581760460002,175.99510209570212
1699305840331,21.56734810788801,-1.1217436460460002,176.78494379570213
1699305840345,21.55571187788801,-1.1891604660460002,177.57770009570214
1699305840359,21.53958732788801,-1.257339626046,178.37114639570214
1699305840372,21.51955560788801,-1.3226130460460002,179.16475969570214
1699305840387,21.49814060788801,-1.3606685360460002,179.96692079570215
1699305840401,21.47833395788801,-1.3462022960460005,180.7808441957021
1699305840414,21.45813191788801,-1.2949341160460004,181.6022769957021
1699305840428,21.43864855788801,-1.2188541560460004,182.42995849570207
1699305840442,21.421703347888013,-1.1253299260460004,183.25933569570216
1699305840456,21.409754377888014,-1.0245782260460004,184.08943819570217
1699305840470,21.40443886588801,-0.9357650960460004,184.91454829570216
1699305840484,21.40635554288801,-0.8713258560460003,185.73182459570216
1699305840498,21.416300488888016,-0.8385502460460004,186.53683489570216
1699305840512,21.434781268888017,-0.8317799250460004,187.33041099570207
1699305840526,21.46319062888801,-0.8379141630460004,188.11390459570217
1699305840540,21.50234545888802,-0.8430245480460005,188.88827059570207
1699305840554,21.55241526888802,-0.8423553685460005,189.65298289570217
1699305840568,21.61103363888802,-0.8394400775460005,190.40624639570217
1699305840581,21.67553068888802,-0.8380447665460005,191.14518999570217
1699305840596,21.74387906888802,-0.8339395285460005,191.86994909570217
1699305840609,21.81389699888802,-0.8192078685460005,192.58225169570213
1699305840623,21.88334594888802,-0.7864652685460005,193.28359239570216
1699305840636,21.95089529888802,-0.7356892985460005,193.97605139570217
1699305840650,22.01640079888802,-0.6707069985460005,194.66036649570216
1699305840664,22.08063785888802,-0.5985990085460005,195.33629269570216
1699305840678,22.144896998888026,-0.5261717085460005,196.00538649570217
1699305840692,22.20998735888802,-0.4592352785460005,196.66914239570207
1699305840706,22.275563878888025,-0.4032854785460005,197.3286786957022
1699305840720,22.341658318888022,-0.3640311585460005,197.9849033957022
1699305840734,22.407844938888022,-0.3429573885460005,198.6392722957022
1699305840748,22.47463727888802,-0.3397696865460005,199.2931460957022
1699305840761,22.54197326888802,-0.3520228865460005,199.94795449570225
1699305840775,22.610927478888023,-0.3772565565460005,200.60517619570223
1699305840789,22.68224835888802,-0.4116465665460005,201.26537189570223
1699305840803,22.757058508888026,-0.4533258265460005,201.92933689570225
1699305840817,22.83569264888802,-0.5006004865460005,202.59644949570225
1699305840831,22.91846427888802,-0.5528061465460006,203.2662143957022
1699305840845,23.00515555888802,-0.6092620165460005,203.9375404957022
1699305840859,23.09603976888802,-0.6694758965460006,204.60983989570207
1699305840872,23.19151278888802,-0.7310981665460006,205.28346649570216
1699305840886,23.29249128888802,-0.7908217565460006,205.95925859570207
1699305840900,23.39869708888802,-0.8481975665460006,206.63648389570216
1699305840914,23.510572088888026,-0.9056116465460008,207.3142821957022
1699305840929,23.62795378888802,-0.9648178965460008,207.9915901957022
1699305840944,23.75147068888802,-1.0245584365460008,208.6690485957022
1699305840956,23.88109358888802,-1.0820761365460008,209.3476288957022
1699305840970,24.017512388888026,-1.1356092765460009,210.0283197957022
1699305840984,24.160157688888024,-1.186093586546001,210.71099869570224
1699305840998,24.308364388888023,-1.234919006546001,211.3949418957022
1699305841012,24.461122088888025,-1.282994296546001,212.07930309570224
1699305841026,24.61761338888802,-1.330795046546001,212.7631900957022
1699305841039,24.77707458888802,-1.375812166546001,213.4464055957022
1699305841053,24.93933628888802,-1.410289976546001,214.1305355957022
1699305841067,25.10527758888802,-1.413184797546001,214.8210018957022
1699305841082,25.27485308888802,-1.373868527546001,215.51801089570225
1699305841095,25.445830188888017,-1.296861617546001,216.2221365957022
1699305841109,25.61682848888801,-1.200851427546001,216.9267557957022
1699305841123,25.786879388888018,-1.097779927546001,217.6315024957022
1699305841136,25.95631838888802,-0.9888251275460008,218.3365661957022
1699305841151,26.12337828888802,-0.8788079275460009,219.0409213957022
1699305841164,26.28523598888802,-0.7774293275460009,219.7419803957022
1699305841178,26.439348088888018,-0.695320247546001,220.4359722957022
1699305841192,26.58365688888802,-0.636372917546001,221.1220426957022
1699305841206,26.71905378888802,-0.5904359075460011,221.8018147957022
1699305841220,26.84464458888802,-0.547389287546001,222.4764511957022
1699305841233,26.96113858888802,-0.499890747546001,223.1472933957022
1699305841248,27.06850658888802,-0.448032777546001,223.8137022957022
1699305841261,27.16717778888802,-0.393781507546001,224.4744206957022
1699305841275,27.25865261888801,-0.337557747546001,225.1293145957022
1699305841289,27.34385304888802,-0.2782553275460009,225.7786507957022
1699305841302,27.423806418888017,-0.2162562775460009,226.4230414957022
1699305841317,27.499276728888017,-0.1534922875460009,227.0631035957022
1699305841332,27.570979638888016,-0.0923047975460009,227.7002164957022
1699305841345,27.638778688888017,-0.0349857875460009,228.33530029570213
1699305841359,27.702972888888016,0.016548452453999,228.9695780957022
1699305841373,27.763829778888017,0.060173812453999,229.60429319570216
1699305841386,27.821471418888017,0.092527572453999,230.2404540957021
1699305841401,27.876011908888017,0.111544762453999,230.87887419570217
1699305841415,27.927043918888018,0.115764748453999,231.52098779570213
1699305841428,27.974927858888016,0.107017286453999,232.1681448957021
1699305841442,28.01986409888801,0.086093956453999,232.82125219570213
1699305841456,28.06170777888801,0.052470796453999,233.48051209570207
1699305841470,28.09949604888801,0.004555556453999,234.14639669570207
1699305841485,28.132629048888013,-0.0541999735460009,234.81889539570213
1699305841498,28.16071898888801,-0.1209430435460009,235.49841479570213
1699305841512,28.18367258888801,-0.1945352235460009,236.1850251957021
1699305841526,28.20056737888801,-0.2760269735460009,236.8787358957021
1699305841540,28.211572568888013,-0.3642495935460009,237.5790270957021
1699305841554,28.21641842688801,-0.4576480335460009,238.28585249570216
1699305841568,28.21502937088801,-0.555505553546001,238.99899869570217
1699305841582,28.20695347788801,-0.6571642535460009,239.71866609570216
1699305841595,28.19238705788801,-0.761707953546001,240.44395209570217
1699305841609,28.17100642788801,-0.8671083535460009,241.17593329570207
1699305841623,28.14320249788801,-0.9723270535460008,241.9139062957022
1699305841636,28.10915659788801,-1.0769496535460008,242.65781119570207
1699305841651,28.06865008788801,-1.179878353546001,243.4078035957021
1699305841664,28.02177428788801,-1.279908253546001,244.1635328957022
1699305841678,27.96864878788801,-1.376042343546001,244.92489439570213
1699305841692,27.90936424788801,-1.467796693546001,245.6921731957022
1699305841706,27.84445442788801,-1.5554008535460009,246.4646400957022
1699305841721,27.77383668788801,-1.640616953546001,247.24108869570225
1699305841734,27.69812325788801,-1.724460723546001,248.0201111957022
1699305841748,27.61820977788801,-1.805435823546001,248.80061139570225
1699305841761,27.53629092788801,-1.869047313546001,249.58634709570225
1699305841775,27.45636902788801,-1.884582913546001,250.38323559570225
1699305841789,27.378633747888014,-1.861715313546001,251.1850287957022
1699305841803,27.30257923788801,-1.816393213546001,251.9911397957022
1699305841817,27.23191476788801,-1.736634333546001,252.8021241957022
1699305841831,27.16954297788801,-1.618265433546001,253.6216676957022
1699305841845,27.115471547888014,-1.482659333546001,254.4456252957022
1699305841859,27.06826615788801,-1.354045433546001,255.2681563957022
1699305841873,27.02762344788801,-1.248008933546001,256.0861585957022
1699305841887,26.99319550788801,-1.172894033546001,256.89626559570223
1699305841900,26.96539008788801,-1.127050863546001,257.6983566957022
1699305841914,26.94531699788801,-1.100444053546001,258.49286599570223
1699305841928,26.93381642788801,-1.082220803546001,259.2803814957022
1699305841942,26.93022921188801,-1.066715193546001,260.0609960957022
1699305841956,26.933083320888016,-1.052676473546001,260.8345757957022
1699305841970,26.94060918188801,-1.038306553546001,261.59975749570225
1699305841984,26.95111176188802,-1.020014013546001,262.35496439570227
1699305841998,26.962208711888017,-0.994681763546001,263.1004659957023
1699305842011,26.97267707188801,-0.961770913546001,263.8363869957023
1699305842025,26.98168610488802,-0.9242272635460008,264.5630862957023
1699305842039,26.99057107088802,-0.885342013546001,265.2827107957023
1699305842053,27.00087725088802,-0.8465355835460009,265.9974194957024
1699305842067,27.013109640888025,-0.8105294635460009,266.70911089570234
1699305842081,27.026549270888022,-0.7809082535460009,267.4187356957023
1699305842095,27.040418880888023,-0.7632037735460009,268.1264872957023
1699305842109,27.055037540888023,-0.7598381145460009,268.8326271957023
1699305842122,27.070192860888024,-0.7711667445460009,269.5381805957023
1699305842136,27.086208030888024,-0.7950024945460009,270.24413539570224
1699305842150,27.103888940888023,-0.8295221845460009,270.95141959570225
1699305842164,27.123241640888025,-0.8726373045460009,271.66014459570226
1699305842178,27.144478660888023,-0.9227142445460008,272.37061569570227
1699305842192,27.167393130888023,-0.9777258145460008,273.0827416957023
1699305842206,27.192680310888026,-1.0369943045460008,273.7965123957023
1699305842220,27.22005041088802,-1.0993618245460008,274.5113805957023
1699305842234,27.25029759088802,-1.1642290545460008,275.2272112957023
1699305842248,27.28348659088802,-1.2303874245460007,275.9440213957023
1699305842262,27.32054959088802,-1.2968745545460008,276.6620585957023
1699305842276,27.361988470888026,-1.3629896345460009,277.3811527957023
1699305842289,27.40817933088802,-1.429165044546001,278.1008372957023
1699305842303,27.45965450088802,-1.495637024546001,278.8209647957023
1699305842317,27.51680084088802,-1.5621800045460008,279.54207789570233
1699305842331,27.58007600088802,-1.6272416345460008,280.2649126957023
1699305842345,27.65074583088802,-1.6900187445460009,280.99001479570234
1699305842359,27.72844656088802,-1.7523195545460009,281.71731249570234
1699305842372,27.81323596088802,-1.8147600345460009,282.44629789570234
1699305842386,27.904470550888018,-1.8773625545460009,283.1765408957023
1699305842401,28.00128295088802,-1.940167244546001,283.9073259957023
1699305842415,28.10232685088802,-2.002027194546001,284.6384212957023
1699305842428,28.20641425088802,-2.059201654546001,285.3703093957023
1699305842442,28.31304985088802,-2.0927628045460014,286.1082656957023
1699305842456,28.42166745088802,-2.080344204546001,286.8558956957023
1699305842470,28.52839645088802,-2.034206374546001,287.61106849570234
1699305842484,28.63079045088802,-1.969104464546001,288.3699410957024
1699305842498,28.72828958088802,-1.894063994546001,289.1307792957024
1699305842512,28.82219753088802,-1.808864084546001,289.8936731957024
1699305842525,28.91180212088802,-1.718723624546001,290.65626439570235
1699305842539,28.99365420088802,-1.632942224546001,291.4143441957024
1699305842554,29.064297600888025,-1.563240184546001,292.1616484957024
1699305842567,29.123176860888023,-1.512591794546001,292.89607169570235
1699305842582,29.170888260888024,-1.472711004546001,293.6192623957023
1699305842594,29.208918380888026,-1.431335804546001,294.3346070957023
1699305842609,29.238058200888023,-1.379409134546001,295.04421039570235
1699305842623,29.259967410888024,-1.3194999545460009,295.7483853957024
1699305842636,29.275653740888025,-1.2561409045460008,296.44530309570234
1699305842651,29.285875070888025,-1.1915349045460009,297.13378399570234
1699305842664,29.292139548888024,-1.1252287345460008,297.8141548957024
1699305842678,29.296435344888025,-1.0571981145460008,298.4874833957024
1699305842692,29.299356657888023,-0.9888916945460008,299.1542212957024
1699305842706,29.300850647888023,-0.9220543445460008,299.8159787957024
1699305842720,29.300529408688025,-0.8582507345460008,300.4737622957024
1699305842735,29.298728752688024,-0.7987659645460008,301.1293075957024
1699305842748,29.295551348688026,-0.7466497545460008,301.7835336957024
1699305842761,29.291198302688027,-0.7076632445460008,302.4364355957024
1699305842776,29.286193807688026,-0.6861821745460008,303.0879266957024
1699305842789,29.281029273688027,-0.6854943043460008,303.7376129957024
1699305842803,29.276643384688025,-0.7052154543460007,304.3868865957024
1699305842817,29.274175632688024,-0.7394161643460008,305.03838269570235
1699305842831,29.274582672788025,-0.7849375143460008,305.69453299570233
1699305842845,29.278043198788023,-0.8400268543460008,306.35588719570234
1699305842859,29.284686791788022,-0.9044559543460008,307.0225191957024
1699305842873,29.294591414788027,-0.9780968043460008,307.6939466957023
1699305842887,29.307959724788027,-1.0605638443460008,308.3699504957023
1699305842900,29.325005964788023,-1.150230054346001,309.0508516957023
1699305842915,29.345378564788028,-1.2442479743460009,309.7360392957023
1699305842928,29.367710044788023,-1.3402799243460009,310.4251628957024
1699305842942,29.391474894788026,-1.4358520843460008,311.1184027957023
1699305842956,29.415533564788024,-1.5306153843460009,311.8156481957023
1699305842971,29.439282324788024,-1.623941484346001,312.51687349570227
1699305842984,29.462092064788024,-1.7140704843460008,313.22232749570225
1699305842998,29.483072484788025,-1.7993084743460008,313.93220399570225
1699305843012,29.501591354788022,-1.8800595043460009,314.64662369570226
1699305843026,29.517197754788025,-1.957225864346001,315.36562019570226
1699305843039,29.529365234788024,-2.032097804346001,316.0884318957023
1699305843053,29.537421994788023,-2.105132824346001,316.81502359570226
1699305843067,29.541564189788023,-2.175839334346001,317.54502609570227
1699305843081,29.542593651788025,-2.243389534346001,318.27831469570225
1699305843094,29.541566067788025,-2.307825714346001,319.01427379570225
1699305843108,29.539970600788024,-2.3656460243460007,319.75327839570224
1699305843124,29.539329999888025,-2.402011364346001,320.4994909957022
1699305843136,29.540934765888025,-2.4034446463460006,321.2545212957022
1699305843151,29.544446194888025,-2.3776757663460004,322.0153815957022
1699305843164,29.551170045888025,-2.331012636346,322.7784812957022
1699305843178,29.561888335888025,-2.267787506346,323.5405914957022
1699305843192,29.578022475888023,-2.185981646346,324.3033265957022
1699305843206,29.599603705888025,-2.086754616346,325.06642929570216
1699305843220,29.62759461588802,-1.982624216346,325.8268593957022
1699305843233,29.663611315888023,-1.887641416346,326.58069189570216
1699305843248,29.708650075888023,-1.816289906346,327.32356769570214
1699305843261,29.762013395888022,-1.773971026346,328.0532550957021
1699305843275,29.824225595888024,-1.757982416346,328.77054319570215
1699305843289,29.896117855888026,-1.755854047346,329.47859899570216
1699305843304,29.97644912588802,-1.754587228346,330.18044369570214
1699305843317,30.06420543588802,-1.750840355346,330.8765879957021
1699305843331,30.15815657588802,-1.7466374313459998,331.5652868957022
1699305843345,30.257272305888023,-1.7427008533459998,332.2443462957022
1699305843359,30.359983805888024,-1.734596206346,332.9139515957022
1699305843372,30.464388305888026,-1.7170666163459998,333.5740788957022
1699305843386,30.569604105888025,-1.6882421863459998,334.2260419957022
1699305843400,30.675398605888024,-1.6490045863459997,334.8712480957022
1699305843415,30.783108105888022,-1.6029675863459996,335.5106165957022
1699305843428,30.89358410588802,-1.5541794163459997,336.1459275957022
1699305843442,31.00687220588802,-1.5082956463459996,336.77767019570217
1699305843456,31.122531305888018,-1.4713589163459997,337.40620919570216
1699305843469,31.239506005888018,-1.4485072763459994,338.0317975957022
1699305843484,31.357967605888017,-1.442514172345999,338.6550345957022
1699305843497,31.477157605888017,-1.4538896823459992,339.2764462957022
1699305843513,31.59699320588801,-1.4805284723459993,339.8968734957022
1699305843526,31.71694530588801,-1.5199027123459992,340.5173579957022
1699305843539,31.836626405888016,-1.5685694623459991,341.1383583957022
1699305843553,31.956158805888016,-1.623746592345999,341.7600203957022
1699305843567,32.07582410588802,-1.682925362345999,342.3817709957022
1699305843581,32.196338505888015,-1.744722712345999,343.0029338957022
1699305843595,32.31778750588801,-1.8077825623459989,343.6228485957022
1699305843609,32.44117190588801,-1.871754572345999,344.24120879570216
1699305843623,32.56697200588801,-1.9359296023459989,344.8579369957022
1699305843636,32.69551020588801,-1.999405312345999,345.4731817957022
1699305843651,32.82675340588801,-2.061698492345999,346.0869034957022
1699305843664,32.96103520588801,-2.1223182423459988,346.69940639570217
1699305843678,33.09847340588801,-2.1807674723459987,347.3107303957022
1699305843692,33.23982930588801,-2.2356413223459985,347.9214197957022
1699305843706,33.384547305888006,-2.2863051623459985,348.5320439957022
1699305843720,33.533399905888004,-2.3325206323459984,349.14254859570224
1699305843734,33.686623305888006,-2.3748566423459985,349.7529415957022
1699305843748,33.84420760588801,-2.4137883823459987,350.3627627957022
1699305843761,34.006401405888006,-2.449236382345999,350.9717860957022
1699305843775,34.172268305888004,-2.480864662345999,351.57975079570224
1699305843789,34.341178205888006,-2.506744052345999,352.18672839570223
1699305843803,34.513049505888006,-2.519016602345999,352.79509329570226
1699305843817,34.68857170588801,-2.499560732345999,353.4105334957023
1699305843832,34.86743530588801,-2.449042452346,354.03083369570226
1699305843845,35.04808430588801,-2.3795059423459994,354.65397569570223
1699305843859,35.22993990588801,-2.2972154223459995,355.27629429570226
1699305843873,35.41262140588801,-2.199759202346,355.9007389957023
1699305843887,35.59510080588801,-2.089585202345999,356.52725019570227
1699305843900,35.77574560588801,-1.977189502345999,357.1538310957023
1699305843914,35.95277780588801,-1.8720443023459992,357.7781364957023
1699305843928,36.12435600588801,-1.783156012345999,358.3968498957023
1699305843942,36.28748070588801,-1.718225702345999,359.0059637957023
1699305843956,36.44015330588801,-1.677668242345999,359.6035958957023
1699305843970,36.58073600588801,-1.654842852345999,360.1910233957023
1699305843985,36.708513605888015,-1.638265742345999,360.7711644957023
1699305843998,36.823815605888015,-1.616992072345999,361.3468185957023
1699305844012,36.92751670588802,-1.588092492345999,361.9186814957023
1699305844026,37.020568425888015,-1.554382242345999,362.4849732957023
1699305844039,37.10450666588802,-1.516637732345999,363.0443456957023
1699305844053,37.180363035888014,-1.473276732345999,363.5962257957023
1699305844068,37.24989808588801,-1.423453142345999,364.1407914957023
1699305844081,37.313791355888014,-1.368554982345999,364.6781626957023
1699305844095,37.37303515588801,-1.309323282345999,365.2087469957023
1699305844108,37.42847593588801,-1.245509932345999,365.7340736957023
1699305844123,37.48110805588801,-1.1790573723459992,366.2551527957023
1699305844137,37.53105451588801,-1.113359782345999,366.7723454957023
1699305844151,37.57902679588801,-1.053123932345999,367.2851028957023
1699305844164,37.62560703588801,-1.0017364023459991,367.7936794957023
1699305844178,37.67109931588801,-0.9599407923459992,368.2988158957023
1699305844192,37.71560853588801,-0.9271249423459992,368.8018587957024
1699305844206,37.75922016588801,-0.9030490623459992,369.3039875957023
1699305844221,37.80139624588801,-0.8892149023459991,369.8057967957024
1699305844234,37.84179852588801,-0.884756332345999,370.3080537957024
1699305844249,37.88022546588801,-0.8882383893459991,370.8112690957024
1699305844262,37.91578620588801,-0.9003832293459991,371.3152446957024
1699305844275,37.947928845888015,-0.9217406293459992,371.81896519570233
1699305844289,37.97634181588801,-0.9507948293459992,372.32181079570233
1699305844304,38.000626865888016,-0.9853377693459991,372.8236442957023
1699305844317,38.02125416588802,-1.0247862093459992,373.3243050957023
1699305844331,38.03795651588802,-1.0681712293459993,373.8238683957023
1699305844345,38.05095543588802,-1.1161412793459993,374.3220493957023
1699305844359,38.05947518988802,-1.1692207293459993,374.8180339957023
1699305844373,38.06361693788802,-1.2286406893459991,375.3104808957023
1699305844388,38.06321804868802,-1.2957605993459993,375.79720359570223
1699305844400,38.05843105068802,-1.3700982293459991,376.2770508957023
1699305844414,38.04896887268802,-1.4482715093459992,376.74954849570224
1699305844427,38.03478742268802,-1.5270157593459992,377.21532169570224
1699305844441,38.01609414268802,-1.601581069345999,377.6756079957023
1699305844456,37.99388055268802,-1.6675626093459992,378.13179949570224
1699305844470,37.96833136268802,-1.7235661393459991,378.5849784957022
1699305844484,37.94002431268802,-1.7702459893459992,379.0357820957022
1699305844497,37.909196642688016,-1.8082249893459992,379.4843552957022
1699305844511,37.87641130268802,-1.834281489345999,379.9316755957022
1699305844526,37.84240481268802,-1.8393636243459992,380.38060339570217
1699305844539,37.807775122688014,-1.8158005543459992,380.8332352957021
1699305844553,37.772428662688014,-1.7639265843459992,381.2887782957021
1699305844567,37.73655473268801,-1.6923252543459992,381.7439952957021
1699305844581,37.70030432268801,-1.6093128343459993,382.19602069570215
1699305844595,37.66450087268801,-1.518235884345999,382.64442859570215
1699305844609,37.62981889268801,-1.4194126743459994,383.09026239570215
1699305844622,37.597460292688005,-1.3164300743459991,383.53256679570217
1699305844636,37.568466912688,-1.2163467743459992,383.9693840957021
1699305844650,37.543376172688,-1.1261216743459992,384.39909799570216
1699305844664,37.522578652688,-1.0507388443459993,384.82002919570215
1699305844678,37.506261702688,-0.9911420143459992,385.23190779570217
1699305844692,37.494797422688,-0.9454605343459992,385.63493399570217
1699305844706,37.488397403688005,-0.9119299643459992,386.0294722957022
1699305844720,37.486605225688,-0.8898394543459992,386.4155006957022
1699305844735,37.488058654688,-0.8788885143459992,386.7933654957022
1699305844748,37.491215018688,-0.8776830623459992,387.16337549570216
1699305844762,37.494845820688006,-0.8835434683459993,387.5261622957021
1699305844775,37.498980445688005,-0.8924459313459993,387.8814727957021
1699305844789,37.504591731688,-0.9017860393459992,388.2283516957021
1699305844803,37.512562332688,-0.9096740563459992,388.5666820957021
1699305844817,37.523232192688,-0.9139243193459992,388.8960872957021
1699305844831,37.536980592688,-0.9107169283459992,389.2169199957021
1699305844845,37.554709512688,-0.8974211383459991,389.52859979570206
1699305844859,37.576022772688,-0.8761630683459991,389.8305180957021
1699305844872,37.600397492688,-0.8505023183459991,390.12210229570206
1699305844885,37.627693002688,-0.822223718345999,390.4009995957021
1699305844899,37.657405242688,-0.7914554383459991,390.6679765957021
1699305844913,37.689021962688,-0.7584805983459991,390.9241283957021
1699305844927,37.722453582688,-0.7236205683459991,391.170188095702
1699305844941,37.757669132688,-0.6883450983459991,391.4071073957021
1699305844955,37.794660272688,-0.6554641383459991,391.6346368957021
1699305844969,37.833315842688,-0.6275494183459992,391.852655695702
1699305844984,37.873508882688,-0.6038203583459992,392.062112695702
1699305845001,37.915139762688,-0.5839867283459992,392.2632140957021
1699305845011,37.957737462688,-0.5675755483459992,392.456503795702
1699305845025,38.001027172688005,-0.5544226083459992,392.642041695702
1699305845039,38.04483067268801,-0.5449276513459992,392.819025795702
1699305845053,38.08964729268801,-0.5380748833459992,392.987230295702
1699305845066,38.13531832268801,-0.5324846813459991,393.147097595702
1699305845080,38.18213581268801,-0.5281932093459991,393.298402995702
1699305845094,38.23030479268801,-0.5269099923459991,393.4401421957021
1699305845108,38.27939618268801,-0.5290085513459991,393.572285395702
1699305845122,38.32943863268801,-0.5335168543459992,393.695206495702
1699305845136,38.38056960268801,-0.5400471703459991,393.808890195702
1699305845151,38.43277002268801,-0.5491765783459991,393.913750695702
1699305845164,38.48625781268801,-0.5613019483459991,394.009607815702
1699305845178,38.54098141268801,-0.5751872583459992,394.097750475702
1699305845192,38.597151582688014,-0.5905879483459991,394.179349915702
1699305845205,38.655178292688014,-0.6077529383459992,394.254803985702
1699305845221,38.715046192688014,-0.6257972583459992,394.324899365702
1699305845235,38.777051382688015,-0.6407691983459992,394.391004505702
1699305845247,38.84151043268802,-0.6511608183459993,394.454116165702
1699305845261,38.90903731268802,-0.6570283723459993,394.514515985702
1699305845275,38.97968320268802,-0.6577368990459993,394.571781285702
1699305845289,39.05347161268802,-0.6535019330459994,394.625094385702
1699305845303,39.13068508268802,-0.6460791090459993,394.672882635702
1699305845317,39.211371052688015,-0.6383908620459993,394.714335985702
1699305845330,39.29531697268801,-0.6329458690459993,394.74941231570193
1699305845344,39.38219900268801,-0.6282429550459993,394.7793868257019
1699305845358,39.471389602688014,-0.6211070890459992,394.80620479570194
1699305845372,39.561981962688016,-0.6101836890459992,394.830745445702
1699305845386,39.653279912688014,-0.5982535690459991,394.852988235702
1699305845400,39.744489982688016,-0.5878064690459991,394.872227075702
1699305845414,39.83452400268801,-0.5804862850459991,394.888341255702
1699305845428,39.92218100268801,-0.5767508980459991,394.901574045702
1699305845442,40.00714887268801,-0.5747982140459991,394.912975985702
1699305845456,40.08972282268801,-0.5727112230459991,394.923487965702
1699305845470,40.17010058268801,-0.5694538590459991,394.9337092157019
1699305845483,40.24813050268801,-0.5643949270459991,394.9443643457019
1699305845497,40.324335052688006,-0.5579077370459992,394.9558477357019
1699305845511,40.399182482688005,-0.5514719950459992,394.9682320157019
1699305845525,40.473029302688005,-0.5467506990459992,394.9811431157019
1699305845539,40.54627073268801,-0.5443558240459991,394.9944917557019
1699305845555,40.618795202688005,-0.5450289819459991,395.0083439057019
1699305845567,40.690304482688006,-0.5480690809459992,395.0227353457019
1699305845581,40.76086245268801,-0.5526326329459992,395.0375783057019
1699305845595,40.83111658268801,-0.5572880289459992,395.0530215257019
1699305845608,40.90124127268801,-0.5615433529459991,395.06894048570194
1699305845623,40.97058597268801,-0.5648798149459991,395.08494403570194
1699305845637,41.03851943268801,-0.5679329379459992,395.100663705702
1699305845650,41.10530671268801,-0.5704723059459992,395.11612101570194
1699305845664,41.170576942688015,-0.5730120409459992,395.131309945702
1699305845678,41.233981402688016,-0.5752597789459992,395.146378955702
1699305845691,41.29563538268802,-0.5774632039459993,395.16167991570194
1699305845706,41.355048532688016,-0.5794195699459993,395.17711724570194
1699305845719,41.412109372688015,-0.5808496269459993,395.1925593557019
1699305845733,41.466828732688015,-0.5822513869459993,395.2079582857019
1699305845747,41.51906563268801,-0.5835262359459993,395.2233902857019
1699305845761,41.56889250268801,-0.5852853229459993,395.2390933157019
1699305845774,41.61588965268801,-0.5873995929459993,395.2549453257019
1699305845788,41.660798122688014,-0.5903848349459994,395.2712789357019
1699305845802,41.70370869268801,-0.5943221169459993,395.2880724657019
1699305845817,41.74464543268801,-0.5992105479459994,395.3054244057019
1699305845831,41.78347181268801,-0.6046259869459993,395.3231005857019
1699305845844,41.820264552688016,-0.6107784059459993,395.341102585702
1699305845858,41.85510816268802,-0.6174722699459994,395.359015225702
1699305845872,41.88826639268802,-0.6247483099459994,395.376774185702
1699305845886,41.919695242688015,-0.6322033819459993,395.39412637570194
1699305845900,41.949130692688016,-0.6399844469459993,395.41092237570194
1699305845914,41.976553612688015,-0.6476893429459993,395.427186775702
1699305845928,42.00209831268801,-0.6555198579459993,395.44276603570194
1699305845942,42.025981182688014,-0.6634244559459993,395.45760195570193
1699305845956,42.048042192688015,-0.6711945979459993,395.4717120457019
1699305845969,42.06832728268802,-0.6790313629459993,395.4850477657019
1699305845984,42.087128992688015,-0.6861696099459993,395.4977668457019
1699305845997,42.10442542268802,-0.6918693659459993,395.5099707857019
1699305846011,42.120312492688015,-0.6964710339459993,395.5215437957019
1699305846025,42.13480631268801,-0.7003690739459993,395.5323632057019
1699305846039,42.147831872688016,-0.7040571489459994,395.542257114702
1699305846053,42.159808222688014,-0.7073884179459994,395.551234342702
1699305846067,42.17050106268801,-0.7104250279459994,395.55948909270194
1699305846082,42.17957445168801,-0.7128903519459994,395.567090689702
1699305846094,42.18750899668801,-0.7147470769459994,395.574475905702
1699305846108,42.19451180368801,-0.7162456409459994,395.5815713907019
1699305846121,42.19994187868801,-0.7174874039459994,395.5883000967019
1699305846136,42.20376226868801,-0.7187660109459995,395.5945339807019
1699305846150,42.20583384568801,-0.7206132469459995,395.6001433157018
1699305846163,42.20587559827801,-0.7225363189459995,395.60509722070185
1699305846177,42.20400427427801,-0.7249549089459995,395.6094559617018
1699305846191,42.20037184227801,-0.7271065539459994,395.6135222697018
1699305846205,42.19486823827801,-0.7290630099459995,395.61723503170185
1699305846219,42.18777545227801,-0.7303343859459995,395.6207974187018
1699305846234,42.17945592327801,-0.7308634325459995,395.6241816507018
1699305846249,42.169944225278016,-0.7307017982459995,395.6273172827018
1699305846261,42.159138255278016,-0.7299760023459995,395.6302843177018
1699305846275,42.147064655278015,-0.7291438620459995,395.6329749717018
1699305846290,42.133838765278014,-0.7280126510459994,395.6356912567018
1699305846303,42.11960666527801,-0.7266549600459994,395.6385894197018
1699305846317,42.10490695527801,-0.7253183450459993,395.6418983887018
1699305846331,42.08977018527801,-0.7238103580459994,395.6457013727018
1699305846344,42.074472485278015,-0.7225400880459993,395.6500145457018
1699305846358,42.05888348527802,-0.7213440860459993,395.6548556387018
1699305846372,42.043049865278014,-0.7202609790459993,395.6602730877018
1699305846386,42.026797195278014,-0.7198704680459993,395.6662089867018
1699305846401,42.01027664527801,-0.7200058549459993,395.6726631097018
1699305846416,41.99366646527801,-0.7206535744459993,395.67969048370185
1699305846428,41.97682014527801,-0.7219279234459993,395.68702493670185
1699305846442,41.960163365278014,-0.7230740464459994,395.6948459527018
1699305846456,41.94338313527801,-0.7239911081459994,395.7028557577018
1699305846470,41.92671976527801,-0.7248112985459995,395.7108456017018
1699305846485,41.91005121527801,-0.7258707565459994,395.7187155027018
1699305846497,41.89323149527801,-0.7270932465459994,395.7263020137018
1699305846511,41.87619867527801,-0.7284709365459994,395.7337191337018
1699305846526,41.85891477527801,-0.7303115835459993,395.7407386767018
1699305846539,41.84129335527801,-0.7323400875459993,395.7474746317018
1699305846553,41.82345663527801,-0.7346257755459993,395.75377258770186
1699305846568,41.80556463527801,-0.7365985995459993,395.7597099517018
1699305846581,41.78753451527801,-0.7381420965459993,395.7652883617018
1699305846595,41.76960985527801,-0.7388638929459993,395.7706046347018
1699305846608,41.75171652527801,-0.7392839786459993,395.7758974097018
1699305846622,41.733708655278015,-0.7395590921459992,395.7808587737018
1699305846637,41.71555582527802,-0.7399366713459993,395.7855525687018
1699305846652,41.69677026527802,-0.7402586434459992,395.7899127757018
1699305846664,41.67764953527802,-0.7403793812459992,395.7941909697018
1699305846678,41.65843976527802,-0.7402397110459992,395.7982941977018
1699305846692,41.63881649527802,-0.7396096712459992,395.8021791897018
1699305846705,41.61899975527802,-0.7391184893459992,395.8058018167018
1699305846720,41.59915230527802,-0.7385992560459992,395.8092840537018
1699305846733,41.57919959527802,-0.7381262502459992,395.81271516370185
1699305846747,41.55894615527802,-0.7377159755459992,395.8159663097019
1699305846761,41.53857989527802,-0.7374218465459992,395.8191551817019
1699305846775,41.51813425527802,-0.7376347247459992,395.8221069267019
1699305846789,41.49766013527802,-0.7382624885459992,395.82489110870193
1699305846803,41.47719928527802,-0.7393724115459992,395.8275231597019
1699305846817,41.456832515278016,-0.7404778165459992,395.8300357177019
1699305846831,41.43664889527802,-0.7409496355459992,395.8323887777019
1699305846845,41.41678651527802,-0.7405920931459993,395.8346173867019
1699305846858,41.39699629527802,-0.7395654041459993,395.8364759547019
1699305846873,41.37774350527802,-0.7383093411459992,395.83799163770186
1699305846887,41.35893944527802,-0.7371954311459992,395.8392110747018
1699305846900,41.34065342527802,-0.7360979481459992,395.8400595301018
1699305846914,41.32286002527802,-0.7352278177459992,395.8408639800018
1699305846928,41.30537822527802,-0.7343708249459993,395.8414510154018
1699305846941,41.288286935278016,-0.7334929659459992,395.8417816372018
1699305846957,41.27136333527802,-0.7326790408459992,395.8417544644718
1699305846970,41.254653505278014,-0.7317937568459992,395.8413032042718
1699305846985,41.238024455278016,-0.7311352725459992,395.84039875217184
1699305846997,41.22188045527802,-0.7304534383459992,395.8390883001719
1699305847011,41.205834205278016,-0.7297428933459992,395.8372541881719
1699305847025,41.19011041527801,-0.7288415362459991,395.8349698191719
1699305847039,41.17494439527801,-0.7279027094459991,395.8321891641719
1699305847053,41.16021747527801,-0.7269694767459991,395.8290473261719
1699305847067,41.14597682527801,-0.7261846692459991,395.8254840391719
1699305847081,41.13200277527801,-0.7253104957459992,395.8213325411719
1699305847095,41.11816095527801,-0.7243607879459991,395.8166396521719
1699305847109,41.10467841527801,-0.7234952031459991,395.8113878621719
1699305847123,41.09133258527801,-0.7225834190459991,395.8054074651719
1699305847136,41.07840440527801,-0.7216158332459991,395.7989360751719
1699305847150,41.06598914527801,-0.720651759745999,395.792086419172
1699305847164,41.05372204527801,-0.719585441745999,395.78474501717193
1699305847178,41.04151328527801,-0.717941816745999,395.7769896781719
1699305847193,41.029520055278006,-0.715966115745999,395.76898600617193
1699305847206,41.01744804527801,-0.713535386745999,395.76076876917193
1699305847219,41.005533725278006,-0.7111103107459991,395.7524344661719
1699305847233,40.99387950527801,-0.708609382745999,395.74399469417193
1699305847248,40.98272690527801,-0.706754268745999,395.7354558051719
1699305847262,40.972093685278,-0.705144065745999,395.7269327061719
1699305847275,40.961867165278,-0.703763891745999,395.7184740921719
1699305847289,40.952335225278,-0.7026988347459989,395.7103377051719
1699305847303,40.943059599278,-0.7017698579459989,395.7023481831719
1699305847317,40.934364588278,-0.7010219106459988,395.694766696172
1699305847330,40.926135437278,-0.7008520079459989,395.6874446231719
1699305847345,40.918249809278,-0.7010670708459988,395.6802781251719
1699305847359,40.910732255278,-0.7014406837459989,395.6732629361719
1699305847372,40.903606677278,-0.7020694957459989,395.66624434117193
1699305847386,40.896935845278,-0.7026236553459989,395.65911481817193
1699305847401,40.890640058278,-0.7032740101459989,395.65185042917193
1699305847414,40.884877682278,-0.7041907297459988,395.64434653817193
1699305847428,40.879470080278,-0.7049098837459988,395.636611727172
1699305847442,40.874316155278,-0.7050727300459988,395.628760799172
1699305847456,40.869221900278,-0.7045898408459988,395.620919783172
1699305847470,40.864117402278,-0.7034243518459988,395.613014957172
1699305847484,40.859148820278,-0.7017663288459989,395.605298028172
1699305847498,40.854148111278,-0.6999523638459989,395.597461990172
1699305847511,40.849302920278,-0.6982129398459989,395.589573617172
1699305847525,40.844328333278,-0.6966150868459988,395.581515604172
1699305847539,40.839218402278,-0.6953592728459989,395.573209285172
1699305847553,40.833780685278,-0.6945304673459989,395.564554728172
1699305847568,40.828024838278,-0.6936807328459988,395.555567365172
1699305847582,40.822143122278,-0.6929082355459989,395.54622276517193
1699305847595,40.816453308278,-0.692053525245999,395.5366098301719
1699305847608,40.810623777278,-0.691241501645999,395.5266678291719
1699305847622,40.804671540278,-0.690415316445999,395.5164223891719
1699305847637,40.79873432727799,-0.6899206304459989,395.5056663091719
1699305847652,40.79286495727799,-0.689616522945999,395.4945943991719
1699305847665,40.78664222627799,-0.689807863745999,395.4830183491719
1699305847678,40.78054406227799,-0.690192649245999,395.4712049491719
1699305847691,40.77460772327799,-0.690112491715999,395.4592706491719
1699305847706,40.76889751627799,-0.689292750515999,395.4472617691719
1699305847720,40.76351232227799,-0.687626072515999,395.4350637691719
1699305847734,40.75861888427799,-0.685329595515999,395.4229033491719
1699305847747,40.75391959227799,-0.6824180915159991,395.4108019691719
1699305847761,40.74962412127799,-0.6792275435159991,395.39895438917193
1699305847775,40.74608816827799,-0.6763232735159991,395.387445049172
1699305847789,40.743076315278,-0.674110631515999,395.376427679172
1699305847802,40.740926146278,-0.672456854515999,395.365972169172
1699305847817,40.739554393278,-0.671043772515999,395.356246373172
1699305847831,40.738577457978,-0.669260887515999,395.347473058172
1699305847844,40.73822904107799,-0.6670730985159989,395.339775526172
1699305847858,40.738428602078,-0.6649947225159989,395.333124016172
1699305847872,40.739414099678,-0.6635146455159989,395.327424262172
1699305847887,40.740761036678,-0.6627676824159989,395.322825282172
1699305847900,40.742382592678,-0.6630561124159989,395.319262942172
1699305847914,40.744382104678,-0.6639220149159989,395.316851109172
1699305847928,40.746593172678,-0.6651575179159989,395.315539223172
1699305847942,40.749448325678,-0.6663796769159989,395.315482073842
1699305847956,40.75237804967799,-0.6678002299159989,395.316187616842
1699305847970,40.755811514678,-0.6697121369159988,395.317646926842
1699305847984,40.759987033678,-0.6721195009159988,395.319820459842
1699305847997,40.764598638678,-0.6749996349159988,395.322536498842
1699305848011,40.769878764678,-0.6779169759159988,395.325950327842
1699305848025,40.775795203678,-0.6807655969159988,395.329981950842
1699305848039,40.782299217678,-0.6837255749159988,395.334393882842
1699305848053,40.789243989678,-0.6866607449159988,395.339160132842
1699305848066,40.796701485678,-0.6896339739159988,395.343970308842
1699305848081,40.804684216678,-0.6922319779159988,395.34904890484194
1699305848094,40.812985698678,-0.6945923519159988,395.35423555884194
1699305848108,40.821694189678,-0.6966425009159988,395.3596424958419
1699305848123,40.830855660678,-0.6980921709159987,395.3652921298419
1699305848136,40.840563595678,-0.6993583909159987,395.3711056238419
1699305848150,40.850614915678,-0.7002368391159988,395.37717375884193
1699305848163,40.860712875678,-0.7007078570159988,395.383523235842
1699305848178,40.870942845678,-0.7014024506159988,395.39010020484193
1699305848192,40.881297775678,-0.7021743998159988,395.39688978684194
1699305848205,40.891462975678,-0.7033713308159988,395.403775640842
1699305848219,40.901583135678,-0.7049258378159988,395.411036255842
1699305848233,40.911462907678,-0.7065223008159989,395.418637090842
1699305848247,40.921198339678,-0.7081291398159989,395.426572308842
1699305848261,40.930795232678,-0.709770581815999,395.434768741842
1699305848276,40.939945899678,-0.711843604815999,395.443157657842
1699305848289,40.948649442678,-0.7141324948159989,395.451681768842
1699305848303,40.956999487678,-0.716812827815999,395.460299367842
1699305848318,40.96465224267801,-0.7192205338159989,395.469202556842
1699305848331,40.97196715767801,-0.721245447815999,395.478358606842
1699305848345,40.979128458678005,-0.7233721228159989,395.487670425842
1699305848359,40.98638270467801,-0.7254733748159989,395.497214940842
1699305848372,40.99322373767801,-0.727618850815999,395.506702766842
1699305848386,40.99990802467801,-0.729488624815999,395.516309547842
1699305848400,41.00640612667801,-0.731054170815999,395.5261323988421
1699305848414,41.012602570678006,-0.732581054815999,395.53594450584205
1699305848428,41.01859191167801,-0.733958759815999,395.5457591328421
1699305848442,41.02440480867801,-0.735222243815999,395.5553802598421
1699305848456,41.029887007678006,-0.736457641815999,395.5647637208421
1699305848469,41.03503658367801,-0.737561727815999,395.5740877688421
1699305848483,41.03963274867801,-0.7388679988159991,395.5832502078421
1699305848497,41.04389108867801,-0.7402192498159991,395.5923090598421
1699305848512,41.04776788067801,-0.7419805828159991,395.6013472628421
1699305848525,41.051210839678006,-0.7439435748159992,395.6103675708421
1699305848539,41.054201912678,-0.7458326318159991,395.61948796084215
1699305848553,41.057193527678,-0.7476818368159991,395.6287657518421
1699305848567,41.059810459678005,-0.7491255778159991,395.6380599678421
1699305848581,41.062100118678,-0.7502669498159991,395.6472300548421
1699305848594,41.064236724678,-0.751548781815999,395.6561213488421
1699305848608,41.066003002678,-0.753031770815999,395.6647437918421
1699305848622,41.067571223678,-0.754628050815999,395.6731498848421
1699305848636,41.069053220678,-0.756065997815999,395.68137007584215
1699305848650,41.070681723678,-0.7572047218159991,395.68943716584215
1699305848664,41.072432628678,-0.7580305038159991,395.6972396108421
1699305848678,41.073730314678,-0.7585831122159992,395.70454580484216
1699305848692,41.074786036678,-0.7590492091159992,395.7115053858421
1699305848706,41.075748461478,-0.7593167145159991,395.71811628384216
1699305848722,41.076706715778,-0.7594732482159992,395.72417056884217
1699305848733,41.077106855978,-0.7597794018159991,395.72979339884216
1699305848750,41.076991212478,-0.7598661598359991,395.7349582398422
1699305848761,41.076394467378,-0.7596446355359991,395.73959443484216
1699305848775,41.075765396578,-0.7589995902359992,395.74390429784216
1699305848789,41.074950182678,-0.7580909919359992,395.74770655684216
1699305848803,41.074241629878,-0.7573294475359992,395.75111308184216
1699305848818,41.073641450478,-0.7565147645359992,395.7542766888421
1699305848831,41.072756348778,-0.7557761908359992,395.75699343584216
1699305848844,41.071786414078,-0.7549477674359992,395.7594454298422
1699305848858,41.070921790278,-0.7541696937359992,395.7617919608422
1699305848872,41.069980825878,-0.7535193998359991,395.7639937298422
1699305848887,41.068993578078,-0.7527619695359992,395.7660678858422
1699305848900,41.067921010078,-0.7520473339359992,395.7679531588422
1699305848914,41.066879680078,-0.7511484356359992,395.7696586088422
1699305848928,41.065727920078,-0.7505624827359992,395.7710824458422
1699305848941,41.06470268207801,-0.7500255112359993,395.7722611418422
1699305848956,41.06362630807801,-0.7497867022359993,395.7730890663422
1699305848970,41.062788111378005,-0.7494586553359993,395.7737975289422
1699305848985,41.06205111037801,-0.7491686307359993,395.7740813864422
1699305848998,41.06127481087801,-0.7482770149359993,395.7741593067422
1699305849011,41.06067448027801,-0.7469936049359993,395.7740371090422
1699305849025,41.06001277997801,-0.7451435309359993,395.77361843514217
1699305849039,41.05930365817801,-0.7431573829359993,395.7729442117422
1699305849053,41.05852339687801,-0.7412261029359993,395.7720321134422
1699305849066,41.057545919278006,-0.7394360569359993,395.7709622864422
1699305849081,41.05631472327801,-0.7377971889359993,395.7696543474422
1699305849094,41.05501103327801,-0.7365312719359993,395.7681169684422
1699305849108,41.053661027278,-0.7354947159359994,395.7663662984422
1699305849123,41.05196995227801,-0.7342464239359994,395.7644914264423
1699305849136,41.05019759227801,-0.7330534009359994,395.7624993454422
1699305849150,41.04831414927801,-0.7318162699359994,395.7603681154423
1699305849163,41.04616216727801,-0.7308500186359993,395.7579779264423
1699305849177,41.04385291527801,-0.7300148824359993,395.7552890614423
1699305849192,41.04136828827801,-0.7295474578359993,395.7524213644423
1699305849205,41.03863277827801,-0.7288363285359993,395.7495746304423
1699305849219,41.035828325278,-0.7279719140359994,395.7468330814423
1699305849233,41.032932157278005,-0.7270534829359994,395.7439928884423
1699305849248,41.029705955278,-0.7262692947359993,395.7409082694423
1699305849261,41.026528824278,-0.7253806844359993,395.7376350654423
1699305849275,41.023165063278,-0.7242468134359994,395.7342356364423
1699305849289,41.019478830278,-0.7227149594359994,395.7305744174423
1699305849303,41.015549169278,-0.7209668374359994,395.7266311764423
1699305849317,41.011248005278,-0.7191609034359995,395.7222749694423
1699305849330,41.006742457278,-0.7173760024359995,395.7175217654423
1699305849344,41.001689515278,-0.7156197984359995,395.71246041344233
1699305849358,40.996347732278,-0.7142944634359996,395.7072379514423
1699305849372,40.990807777278,-0.7129875414359995,395.7019688614423
1699305849386,40.984950608278,-0.7118078284359995,395.69655631344233
1699305849400,40.978751692278,-0.7105681624359995,395.6910486084423
1699305849414,40.972486065278,-0.7092775204359996,395.6855151804424
1699305849428,40.966123879278,-0.7074759274359995,395.6799745084424
1699305849442,40.960147621278,-0.7054243704359995,395.6744555574424
1699305849456,40.954349237278,-0.7032601414359995,395.6690941404423
1699305849469,40.948786426278005,-0.7014408524359995,395.6638278024423
1699305849483,40.943381925278,-0.6999210034359995,395.6588281634423
1699305849497,40.938346665278,-0.6988511024359995,395.6541897964423
1699305849511,40.933554181278005,-0.6980415140359995,395.6500382374424
1699305849525,40.929112719278,-0.6973298940359994,395.6460769764424
1699305849538,40.925267607278,-0.6968603368359995,395.6424661744424
1699305849553,40.921501795278,-0.6964564120359995,395.6390739834424
1699305849567,40.918017773278,-0.6963633213359995,395.6360293574424
1699305849580,40.914663372278,-0.6963912671459995,395.63317642644233
1699305849594,40.911300339278,-0.6966359572459995,395.6307285174423
1699305849608,40.907785516278,-0.6975672904459995,395.6283924154423
1699305849622,40.903976515278,-0.6985893654459995,395.6260460634423
