time,acceleration_x,acceleration_y,acceleration_z
1698145276338,,,
1698145276350,-0.01035044,-0.002214139,0.01722109
1698145276364,-0.0013451347,0.001127616,0.00157842
1698145276385,-0.0016807553,0.0051500439999999,0.00298228
1698145276404,-0.000996947,0.004917479,0.00215163
1698145276423,-0.001028791,0.0030324139999999,0.0018501
1698145276440,-0.000636504,0.001561159,0.0006571699999999
1698145276457,-0.001080992,0.0002831999999999,3.103999999999954e-05
1698145276474,-0.0008480709999999,-0.00020475,0.0002513999999999
1698145276490,-6.885599999999995e-05,0.00060069,0.00023989
1698145276507,0.000542169,-0.00029293,0.0007337499999999
1698145276521,0.000475871,-0.0026074819999999,0.0005563399999999
1698145276537,0.0010688429999999,-0.002752706,0.00102158
1698145276553,0.0014791339999999,-0.000622084,0.00052578
1698145276567,0.001173749,0.001753646,-0.00019877
1698145276581,0.0012824589,0.0028188359999999,-0.00038457
1698145276596,0.0013667078,0.00189966,-0.0008834299999999
1698145276610,0.0019888593,-2.1419999999999426e-05,-0.0013921
1698145276625,0.0019397039999999,-0.00204658,-0.00108954
1698145276638,0.002543974,-0.002333465,-0.00064567
1698145276653,0.002851021,-0.001155482,-0.0002557899999999
1698145276668,0.00251702,-0.0008406819999999,-0.00043655
1698145276681,0.00278579,-0.001354339,-0.00042296
1698145276694,0.00217692,-0.0011757769999999,-0.0007873699999999
1698145276709,0.00218258,-0.0004384859999999,-0.0005950699999999
1698145276723,0.0017994199999999,0.0005956619999999,-0.00088747
1698145276737,0.00176143,0.000520428,-0.00123718
1698145276752,0.0013028499999999,0.0001240269999999,-0.0016684699999999
1698145276765,0.00104325,0.000372131,-0.0012058599999999
1698145276779,0.0004384599999999,0.0001316139999999,-0.00138318
1698145276794,0.00051854,-0.000649813,-0.00127795
1698145276808,-0.00067406,-0.0024837039999999,-0.00155076
1698145276823,-0.00142416,-0.003747439,-0.0015165899999999
1698145276838,-0.0018394299999999,-0.002090215,-0.00046877
1698145276853,-0.00218211,0.000986283,4.7560000000002045e-05
1698145276868,-0.0024576099999999,0.002172518,-0.00019133
1698145276881,-0.0022957899999999,0.0014694741,-0.00011337
1698145276895,-0.00234072,-0.0001587297,0.00010719
1698145276908,-0.00233896,-0.000999823,0.00028056
1698145276919,-0.0015433519999999,-0.0008965103999999,0.0006146399999999
1698145276933,-0.002004504,-0.000689407,0.0009331399999999
1698145276947,-0.001747836,-5.444200000000003e-05,0.0010038799999999
1698145276960,-0.001627324,0.001005357,0.00078943
1698145276974,-0.0013458769999999,0.0018323389,0.0009469999999999
1698145276988,-0.00103034,0.0012252911,0.0007232
1698145277001,-0.0010638927,0.000321764,0.0005217599999999
1698145277015,-0.0009907988,-0.000857331,0.0006567399999999
1698145277029,-0.0006094946,-0.00105674901,0.00062297
1698145277043,2.0791999999999943e-05,-0.0016629269899999,0.0008443199999999
1698145277058,-0.0003109768999999,-0.001216922,0.00059729
1698145277071,8.367709999999992e-05,0.001123166,0.00100306
1698145277085,-0.0002384531,0.0021035387,0.00051477
1698145277098,0.0004475558,0.0019972313,0.0012841299999999
1698145277112,0.0010090522,0.001522204,0.00120345
1698145277124,0.0005721111,0.00080077,0.0013416599999999
1698145277139,0.0005488639,-0.000298554,0.00090457
1698145277154,0.0007286159999999,-0.0014504869999999,0.0009628999999999
1698145277167,0.000327307,-0.001462576,0.00103369
1698145277181,0.000154403,-0.0008403656,0.00089807
1698145277194,0.0003111619999999,-0.0002256409999999,0.00110486
1698145277207,-0.0003169489999999,0.0003133523999999,0.0006775299999999
1698145277222,-0.0001871849999999,6.338200000000007e-06,0.00103694
1698145277236,-2.0402000000000094e-05,-5.358969999999996e-05,0.0011176399999999
1698145277249,-0.000277808,-0.0003149397,0.0009998799999999
1698145277263,-0.0004352329999999,-0.0006132641,0.00090706
1698145277277,-1.5590000000000005e-05,-0.0014381525,0.0007443999999999
1698145277292,0.0001760229999999,-0.001827295,0.000714245
1698145277305,-0.0001033799999999,-0.0007178269999999,0.0005176199999999
1698145277318,-5.624800000000006e-05,0.0001315399999999,0.000266527
1698145277334,0.000117995,0.001233779,0.0003844969999999
1698145277347,0.0002034579999999,0.001770573,0.0005096939999999
1698145277361,0.000270394,0.0008771286,0.0005203819999999
1698145277375,-5.937400000000006e-05,0.0002748698,0.000360065
1698145277389,0.0002976509999999,-3.41364e-05,0.0003236509999999
1698145277403,0.000126227,0.0003571434,-4.40579999999996e-05
1698145277415,-1.6196999999999913e-05,0.0004118611,2.3806000000000348e-05
1698145277430,0.0001927129999999,0.0009525545,0.0001199799999999
1698145277445,-2.5028999999999763e-05,0.0009269879999999,5.332400000000043e-05
1698145277459,-0.000162529,0.000304452,0.0001254239999999
1698145277473,-0.0001393099999999,2.386299999999984e-05,0.000117311
1698145277486,-0.000589478,-0.001098666,-5.938500000000034e-05
1698145277500,-0.000281623,-0.000735323,-0.000459778
1698145277514,-0.0004833509999999,-0.0008979569,-0.000678428
1698145277526,-0.0003429267,-0.0002697504,-0.0009106699999999
1698145277540,-0.0004239582999999,0.0008703577999999,-0.00105956
1698145277556,-0.0005785842,0.0015049385,-0.0008415469999999
1698145277571,-0.0005334968999999,0.001389506,-0.0006644599999999
1698145277582,-0.0005023949,0.0006939869999999,-0.00046505
1698145277597,-0.000779971,0.000141053,-0.0003755699999999
1698145277612,-0.001034139,-0.0004221349999999,-0.00034334
1698145277625,-0.000451084,-0.000735545,-0.0001076299999999
1698145277638,-0.000503679,-0.000661085,0.0001183299999999
1698145277652,-0.0007531449999999,-1.7982000000000154e-05,0.0003368399999999
1698145277666,-0.000676387,-0.0001305299999999,0.0002938699999999
1698145277680,-0.0005038789999999,-0.0005663,0.00046405
1698145277695,-0.000443717,-0.000849747,0.00040097
1698145277708,-0.0003811439999999,-0.0007998337999999,0.0004896539999999
1698145277722,-6.323699999999984e-05,-0.0010062682,0.0007374359999999
1698145277736,-0.000137359,-0.000580146,0.000905612
1698145277750,0.000301701,-0.000670676,0.000843853
1698145277764,0.0001494669999999,-0.0009435789999999,0.000757336
1698145277778,0.0004256889999999,-0.000953116,0.0007607159999999
1698145277793,3.5424000000000046e-05,-0.0006504849999999,0.000214876
1698145277807,3.710100000000032e-05,-0.000224068,-0.0001203269999999
1698145277820,-0.000160069,8.245499999999951e-05,-0.000251062
1698145277833,0.000198815,0.0001653449999999,-0.0002537719999999
1698145277846,1.2075999999999754e-05,5.656600000000008e-05,-0.000239517
1698145277862,0.000322753,0.000262499,1.1586000000000062e-05
1698145277877,0.0006110909999999,0.0002829069999999,0.000383496
1698145277892,0.000408819,0.0001700939999999,0.000423891
1698145277903,0.0004846889999999,0.0004520629999999,0.000497847
1698145277918,0.0002950489999999,-0.0002807259999999,0.0002683269999999
1698145277932,0.000405781,-0.000530241,-0.000338917
1698145277945,0.0003515,-0.0005840559999999,-0.0005284669999999
1698145277958,0.000227779,-0.000219531,-0.000682608
1698145277972,0.0004828839999999,-0.000224944,-0.000654334
1698145277986,0.000641648,-0.0003830749999999,-0.000420063
1698145278001,0.0006544999999999,9.92959999999996e-05,-0.0002388019999999
1698145278014,0.0004069994,0.0001468119999999,-0.000173532
1698145278029,0.0004231628999999,0.000228435,-1.0767000000000068e-05
1698145278043,0.0003606129,-0.000206556,-0.0002993479999999
1698145278055,5.666559999999999e-05,0.0001524349999999,-0.000594426
1698145278069,-8.264059e-05,0.0002816229999999,-0.0007232709999999
1698145278083,-0.00028527711,0.000272407,-0.0007577369999999
1698145278098,0.0003278264,0.0002623519999999,-0.0002100599999999
1698145278113,0.0002137974999999,0.000883232,-6.439999999999918e-06
1698145278127,-0.0002458109999999,0.0008113579999999,0.0002934599999999
1698145278138,-4.49624e-05,0.000554868,0.000519922
1698145278154,-5.170790000000001e-06,0.000472547,0.000316893
1698145278168,0.00012808229,0.0006483681,0.0001679379999999
1698145278180,-0.00011741009,0.000792815,2.1134000000000777e-05
1698145278195,-0.00012082891,0.000633024,0.000249516
1698145278209,0.000209681,0.0007012599,0.0004458389999999
1698145278224,-0.000154556108,0.000985637,0.000594331
1698145278238,0.000113107208,0.0010435359999999,0.0007884559999999
1698145278252,-7.999438e-05,0.000734611,0.000671312
1698145278265,0.0002294438799999,0.0002788549999999,0.0006600979999999
1698145278280,-4.290399999999975e-06,-0.000865201,0.000403363
1698145278293,-7.93748e-05,-0.0012950239999999,0.000303328
1698145278307,9.985080000000002e-05,-0.000729394,0.0004118309999999
1698145278319,-0.00034992466,-0.00025708,0.000410652
1698145278334,-0.00064611344,0.000658634,0.00026955
1698145278348,-0.0005793012,0.000613298,0.0001551489999999
1698145278362,-0.000622152,0.0001531589999999,0.000272975
1698145278375,-0.00029128,-0.0001195699999999,-2.7747000000000275e-05
1698145278390,-0.000181783,-0.0003201559999999,-0.000139783
1698145278404,-9.754399999999976e-05,-0.000621796,-0.0004013639999999
1698145278416,3.653300000000005e-05,-0.0007310852,-0.000139297
1698145278432,2.347799999999996e-05,8.46922000000001e-05,-3.8063000000000506e-05
1698145278445,0.0004110559999999,-2.220600000000009e-05,0.000170744
1698145278459,0.0001279639999999,0.000515355,0.00028928
1698145278473,-0.0002205459999999,7.110299999999988e-05,0.0001845179999999
1698145278486,2.6183999999999843e-05,-0.000160861,0.000367179
1698145278500,0.000500032,-0.0001634399999999,0.00063225
1698145278516,0.000302891,-5.176900000000012e-05,0.00030381
1698145278529,0.0003146231999999,-0.0008766071999999,0.0005642319999999
1698145278543,0.0004681101999999,-0.0005966332,0.00042386
1698145278558,0.0003187305,-0.0001517687,0.0004704983999999
1698145278571,0.0005129614,8.66722e-05,0.0007242588
1698145278584,0.0001541974,0.00024049432,0.0009842817
1698145278598,3.9959399999999975e-05,0.00046179318,0.0011319431
1698145278612,0.0001234215,0.0004033394999999,0.0010559229999999
1698145278627,0.0002594884,-0.0003564847999999,0.000936398
1698145278641,0.000645895,-0.0005809353,0.000829704
1698145278655,0.0004618519999999,-0.0004964636,0.0006085309999999
1698145278669,0.000155371,-0.0005964933999999,0.000425026
1698145278682,-1.3425999999999976e-05,-0.000717536,0.0002218419999999
1698145278696,0.0005140309999999,-0.000478168,0.0004175929999999
1698145278710,3.61840000000003e-05,-5.799800000000008e-05,0.000280965
1698145278723,7.59999999998956e-08,0.000969479,0.0003274089999999
1698145278737,-0.000246968,0.000894326,0.0001245459999999
1698145278752,0.000165872,0.00069133642,5.264400000000013e-05
1698145278766,-3.865099999999979e-05,4.348756e-05,6.681900000000008e-05
1698145278779,-4.0566000000000126e-05,-0.00039805458,-0.0001694
1698145278792,0.0003092709999999,-0.0006198279,0.000160126
1698145278807,0.000224244,-0.0003579985,0.0001764419999999
1698145278822,-0.000197509,-7.019999999999943e-07,1.7572999999999894e-05
1698145278835,-0.0006661919999999,4.6635000000000166e-05,6.218400000000072e-05
1698145278849,-0.0003727659999999,0.000194521,3.9569999999997454e-06
1698145278862,-0.000402348,0.0008210903999999,-0.000176764
1698145278876,6.470999999999994e-05,0.0007987049999999,-0.000129319
1698145278890,9.106400000000008e-05,0.000169758,6.716100000000048e-05
1698145278904,-1.0814999999999957e-05,-0.0002890515,3.105999999999942e-05
1698145278917,0.0005237779999999,-0.0002659979,0.000273519
1698145278932,0.000691876,-0.0003006782,0.000395646
1698145278944,0.0004019969999999,-0.0002010036,0.0004230759999999
1698145278959,0.00015363,1.8938199999999988e-05,0.000449615
1698145278973,0.000373637,-9.057819999999996e-05,0.0004648919999999
1698145278987,-0.0001578059999999,-0.000374914,0.0002911649999999
1698145279001,0.0001554609999999,-0.0004981761999999,0.000408333
1698145279015,-9.925000000000038e-06,-0.0007788509999999,0.0002990059999999
1698145279029,-0.0001922109999999,-0.000724352,0.00033698
1698145279043,-0.000584729,-0.0004693319999999,1.0089999999999058e-05
1698145279057,-0.000312973,-0.000154755,0.00034686
1698145279070,-0.0003818509999999,0.0002213359999999,-9.989999999999652e-06
1698145279084,-0.000521415,0.000255125,-0.00014749
1698145279099,-0.0003038789999999,0.000133302,-8.171000000000046e-05
1698145279113,-0.0005234183,0.0004399659999999,-0.00041642
1698145279126,-0.0007471011,0.001047674,-0.0003550659999999
1698145279141,-0.0008505364,0.0011205833,-0.0008061719999999
1698145279153,-0.0007000781999999,0.0002372193,-0.000455094
1698145279167,-0.001015665,0.0001004729999999,-0.0005467749999999
1698145279181,-0.00079565,-6.541079999999999e-05,-0.000152002
1698145279196,-0.001264792,0.0001091013,-0.0001767929999999
1698145279210,-0.0005403929999999,0.0001201005,0.0002159589999999
1698145279223,-0.000781133,0.0004264772,-3.847499999999962e-05
1698145279237,-0.000363637,0.0002350077,-1.3235999999999803e-05
1698145279252,-1.448699999999966e-05,0.0005852765,0.0001432429999999
1698145279266,-2.118400000000048e-05,0.000573043,3.2299999999999e-07
1698145279280,0.000149627,0.0008796389999999,0.0002027609999999
1698145279295,0.0001090179999999,0.0003797869999999,0.000506585
1698145279308,0.00019561,0.000333371,0.0004128889999999
1698145279319,0.000632774,2.135499999999981e-05,0.000727896
1698145279334,0.000312138,4.777200000000018e-05,0.0005284169999999
1698145279347,-9.08749999999998e-05,-7.99590000000001e-05,0.00044409
1698145279362,0.0005083349999999,-0.0005103,0.0001045399999999
1698145279378,0.000550703,-0.000856401,-8.61299999999985e-05
1698145279391,0.000222561,-0.0007157839999999,-0.00017658
1698145279404,0.0001906379999999,-0.0011006189,-0.0004215099999999
1698145279419,0.000311828,-0.0011376539,-0.0004132839999999
1698145279433,4.045099999999994e-05,-0.0010328032,-0.000342412
1698145279446,0.00031976,-0.000518645,-0.000327272
1698145279459,0.000163953,0.000196442,-0.00026807
1698145279474,6.1031999999999927e-05,0.0004850869999999,-0.00047316
1698145279489,0.0004971929999999,0.000443872,-0.0002656809999999
1698145279503,0.0002761849999999,0.0004998215,-0.000648519
1698145279517,4.854800000000004e-05,0.0003344631,-0.0006773299999999
1698145279530,0.0003208099999999,0.000340737,-0.0008039179999999
1698145279544,0.000360957,0.0001703536,-0.000762062
1698145279558,2.066539999999993e-05,0.0001805555,-0.0009457129999999
1698145279572,0.000120865,0.0004652439,-0.000603702
1698145279584,-3.1452900000000046e-05,0.0007682953999999,-0.000506158
1698145279600,4.02515e-05,0.000408342,-0.000275876
1698145279612,0.0001021134,0.0010077059999999,-4.715100000000005e-05
1698145279627,0.0001696283999999,0.000642449,3.855000000000004e-05
1698145279640,5.994660000000005e-05,-0.000118038,0.0001568419999999
1698145279654,0.000351611,-0.000136534,0.0003135249999999
1698145279669,0.0003730065,-0.0007533229999999,0.0003873439999999
1698145279682,5.36987e-05,-0.00084575,0.000625595
1698145279696,3.15138e-05,-0.0010775309,0.00042014
1698145279710,1.870840000000001e-05,-0.0005328517,0.0008914959999999
1698145279725,7.114409999999996e-05,1.2151099999999993e-05,0.000555851
1698145279738,-9.218359999999996e-05,-0.0001283099,0.0005370669999999
1698145279751,0.0001617946999999,-0.00025079851,0.000317748
1698145279766,-8.717299999999996e-05,-0.00034297779,0.0002965369999999
1698145279780,-0.0001229215,-9.3107e-05,0.000197173
1698145279794,-2.29718e-05,-0.0001273070999999,0.000148597
1698145279807,-0.00029422744,0.0002454515,0.0002587849999999
1698145279822,3.577685e-05,0.0003943747,0.000304163
1698145279835,-0.00024232691,0.0001177971999999,-4.8400000000007465e-06
1698145279850,0.00024822267,0.0003590298,7.798399999999969e-05
1698145279864,0.00041888373,7.347929999999999e-05,3.127100000000112e-05
1698145279878,0.0003839495,0.0001852553999999,3.0121999999998747e-05
1698145279891,0.0001810142999999,9.343970000000007e-05,-0.0001965439999999
1698145279904,0.0003145656,-5.935400000000007e-05,-0.0001439579999999
1698145279921,-3.3536000000000026e-05,-0.0004943739,-0.000214195
1698145279932,1.869400000000009e-05,3.72808e-05,-7.55879999999997e-05
1698145279947,-0.0001727,-0.0001101828999999,4.473500000000061e-05
1698145279961,-0.0002649009,0.0003900893,0.0004656119999999
1698145279975,-0.0001824388999999,0.000295278,0.000410563
1698145279989,-8.029700000000022e-06,-0.0001262057,0.0003843349999999
1698145280002,-6.830729999999998e-05,-0.0003763606,0.0003340589999999
1698145280015,-0.00043560138,-0.00039496903,0.000175085
1698145280030,-0.00061833102,0.00015174983,0.000137064
1698145280045,-0.0002095930999999,-0.00012482252,-5.6040000000010665e-06
1698145280058,-0.0006456917,-0.00035823948,-0.0003913289999999
1698145280073,-9.89589999999998e-05,-0.0003620832,-0.000477925
1698145280084,-0.000408748,-4.665029999999996e-05,-0.000330524
1698145280099,-0.000241256,4.200380000000004e-05,-0.0002298059999999
1698145280113,-0.000476611,0.0003365486,-0.000408613
1698145280128,-0.0003195049999999,0.0001050195999999,-0.0001941779999999
1698145280142,-0.0004144249999999,0.00024554136,-0.000400895
1698145280156,-0.000624342,-0.00010544674,-0.0003386769999999
1698145280169,-0.0005091319999999,-1.0272539999999996e-05,-0.0002869459999999
1698145280182,-0.0003159759999999,1.7315570000000005e-05,-0.000188049
1698145280196,-0.000166832,0.00030653095,-9.225600000000064e-05
1698145280211,-0.0001907799999999,-0.00016357083,-9.3386e-05
1698145280226,-0.000100437,-0.00048134937,4.362100000000063e-05
1698145280239,0.0004774269999999,-0.0002971771,0.0001140469999999
1698145280253,0.00034434,0.0001135409,0.0002516919999999
1698145280267,0.000636836,0.000582263066,0.000262647
1698145280281,0.001067216,-0.000100667066,0.0004479449999999
1698145280295,0.00056739,-0.000176093,-1.2752999999999896e-05
1698145280309,0.0008622269999999,-0.0006200837,9.933199999999972e-05
1698145280322,0.0004803563999999,-0.0004980055999999,-8.064000000000335e-06
1698145280336,0.0005459471,0.0001093719999999,0.000141437
1698145280350,0.0004941644,0.0004816982999999,-4.385900000000026e-05
1698145280365,0.0004309112999999,0.0004181622,-5.748400000000001e-05
1698145280378,0.0005110328,0.0001316938999999,7.12590000000006e-05
1698145280391,0.0002777949999999,0.0001050291,6.131099999999966e-05
1698145280405,0.0004091579999999,0.00022259264,0.0001170609999999
1698145280417,0.000316271,0.00025782416,4.630300000000101e-05
1698145280432,-0.000135761,0.0001763035,2.6303999999999564e-05
1698145280448,-0.0002017459999999,0.0005011272,-9.053000000000012e-05
1698145280462,-0.000461676,0.0004821829999999,-0.00020601
1698145280475,-0.0004377649999999,0.00021695,-0.0001068249999999
1698145280489,-0.0006206779999999,0.000261881,-0.0002284579999999
1698145280503,-0.000829829,6.287099999999993e-05,-8.132400000000067e-05
1698145280516,-0.000613682,0.0004610719999999,2.483100000000033e-05
1698145280529,-0.0007802629999999,0.0004890039999999,0.0001498469999999
1698145280543,-0.000664726,0.000366415,0.0002253189999999
1698145280558,-0.0007564809999999,-0.0002449789999999,0.000162772
1698145280571,-0.0007109009999999,-0.000380733,0.0001514159999999
1698145280584,-0.000537983,-0.0007089929999999,0.0001741929999999
1698145280599,-0.0007048779999999,-0.000454701,-0.0001128129999999
1698145280613,-0.000624566,-0.000262237,-4.770200000000016e-05
1698145280628,-0.0002762439999999,-5.149500000000014e-05,0.0002230989999999
1698145280642,-0.000410658,-0.0001702909999999,0.000298832
1698145280656,-0.0004447549999999,0.000293595,0.0003829839999999
1698145280668,-0.000231796,0.0002945689999999,0.000370758
1698145280683,-6.999999999999975e-05,0.000343334,0.000328763
1698145280698,-0.000154155,5.2039999999999725e-05,0.0002046229999999
1698145280711,0.0001175059999999,0.000118447,-0.000106092
1698145280724,-0.0003505459999999,-0.000119825,-0.000337871
1698145280738,-0.000606905,-0.000328773,-0.000488821
1698145280752,5.8202000000000254e-05,-0.000183575,-0.0003980759999999
1698145280767,-0.000282825,9.958699999999994e-05,-0.000523939
1698145280780,0.000389422,6.391900000000017e-05,-0.0004506069999999
1698145280794,0.000149015,-5.041700000000008e-05,-0.0004310059999999
1698145280808,0.0004346669999999,-0.000476335,-0.000354181
1698145280822,0.000550091,-0.000129135,-1.125699999999976e-05
1698145280835,0.000789408,1.2605000000000168e-05,-5.5835000000000606e-05
1698145280850,0.000334979,-0.0003188063,1.622499999999992e-05
1698145280864,0.0003116109999999,-0.0006380696,-0.0002375909999999
1698145280878,0.0004439449999999,-0.0009340307,-0.000284111
1698145280892,0.00033611,-0.0007978234,-3.399800000000036e-05
1698145280905,0.0003429689999999,-0.0003040099999999,-9.304999999999383e-06
1698145280918,0.000336629,0.000259446,-9.637399999999977e-05
1698145280934,0.0007491219999999,0.00022308,-2.061900000000037e-05
1698145280947,0.000187611,0.0001685039999999,-0.0001033479999999
1698145280961,0.000446236,-0.00011106,-0.000186708
1698145280974,0.0002393309999999,0.0004324785,-0.0004420039999999
1698145280989,0.000368302,0.0002446361999999,-0.000491805
1698145281002,0.0003336269999999,0.0002516793,-0.000655267
1698145281016,0.000436839,0.0002987511,-0.0004103489999999
1698145281030,5.455800000000013e-05,0.0004854662,-0.000423189
1698145281044,0.0005029463999999,5.450679999999996e-05,-0.000133037
1698145281059,0.00073302673,-0.0005915768,-1.0735999999999904e-05
1698145281073,0.0005724876699999,-0.0007565888,-5.712899999999995e-05
1698145281087,0.0004060479,-0.0005221095,0.000119058
1698145281101,0.0004124563,0.00037963,0.000128103
1698145281114,0.0002498049999999,0.0005149244,-7.598299999999995e-05
1698145281128,0.000240444,0.0004685643999999,-0.0001732199999999
1698145281142,0.0001355779999999,0.0002843292,-0.0003220079999999
1698145281156,3.832200000000014e-05,8.60925e-05,-0.000351769
1698145281170,2.470700000000012e-05,0.0001860323999999,-0.000343893
1698145281183,-0.000375277,-0.0001739196,-0.000345643
1698145281197,-0.0003637849999999,0.0002558778,-0.0003437729999999
1698145281211,-0.0004063319,0.0005555908999999,-0.000209512
1698145281224,-0.0004282405999999,0.000327011,-0.0003278662
1698145281238,-0.00036169956,0.000108606,-0.0001847498999999
1698145281253,-0.0004128345399999,-1.2007000000000077e-05,-0.0003251058
1698145281267,-0.0002593093999999,-0.000134849,-0.0003103716199999
1698145281280,-0.0003262271,-4.956899999999996e-05,-0.0004311049799999
1698145281295,0.0001385863,-0.000183678,-0.0004694665
1698145281307,1.2179200000000034e-05,-5.619999999999996e-05,-0.000455892
1698145281322,0.0004936748,0.0002370989999999,-0.000463518
1698145281337,0.00023042781,7.789600000000004e-05,-0.0004938659999999
1698145281349,0.00061107679,6.503200000000002e-05,-0.000203782
1698145281364,-7.56121e-05,0.000129563,3.01699999999969e-06
1698145281379,-0.0006264835999999,0.0003507519999999,8.463000000000004e-05
1698145281392,-0.0002549183,-0.0001360879999999,-5.3360000000000126e-05
1698145281405,-0.0001969426,-0.000338565,0.000250039
1698145281420,-0.0003977071999999,-0.000442137,-0.0002714589999999
1698145281434,-0.0002026149999999,-0.00105287467,0.000119128
1698145281448,-0.00079261,-0.00143477633,-0.0002053319999999
1698145281462,-0.0004649459999999,-0.001761106,9.101899999999992e-05
1698145281476,-0.000157889,-0.001252245,0.000508035
1698145281490,-0.000459287,-0.0004355909999999,0.000395607
1698145281503,-0.0007086179999999,7.708100000000054e-05,0.0001902429999999
1698145281517,-0.0008009849999999,-0.000713206,0.0004706164
1698145281531,-0.000472947,-2.340100000000015e-05,-5.417780000000004e-05
1698145281545,-0.0002824559999999,5.146100000000004e-05,0.0001641131
1698145281557,-0.000104755,0.000110059,-0.000152179
1698145281571,2.191300000000014e-05,-0.000353611,1.6193000000000069e-06
1698145281585,0.0003086069999999,0.0008561879999999,-0.00025631
1698145281601,0.000765325,0.000869308,-0.000266137
1698145281615,0.0001370329999999,0.001182673,-0.000636182
1698145281631,0.0003716379999999,0.001191298,-0.0006444249999999
1698145281642,-0.0003005289999999,0.0018486232999999,-0.000757571
1698145281655,-0.000464382,0.0020007207,-0.0008289599999999
1698145281670,-0.000213228,0.00176263,-0.000437489
1698145281682,-0.0001963279999999,0.001110573,-0.000515653
1698145281698,-0.000472951,0.0007581469999999,-0.0002900949999999
1698145281711,-0.0006096909999999,-0.0002633879999999,-0.000266426
1698145281726,-0.00013158,-0.000327415,0.0002374059999999
1698145281738,-0.0003629049999999,-0.000365686,0.000414938
1698145281751,-0.0001475479999999,-0.000558106,0.000631445
1698145281766,4.780199999999957e-05,-0.0004098429999999,0.0006969349999999
1698145281779,1.4367999999999846e-05,-0.000887463,0.000547592
1698145281795,-0.0001166299999999,-0.000974093,0.0005205469999999
1698145281809,0.0002646219999999,-0.0010195368999999,0.00048534
1698145281824,0.00052197,-0.0007166396,0.0004450689999999
1698145281838,0.0003815019999999,-0.0006200441,0.0003333419999999
1698145281851,0.000717093,-0.0005379915,0.000303159
1698145281866,0.0005268729999999,-0.0001207428999999,0.0003929931
1698145281879,0.000445929,0.0002320162999999,0.0002565707999999
1698145281893,0.0001432799999999,0.0003692062,5.3328599999999935e-05
1698145281906,0.000688221,0.00048892911,6.421860000000004e-05
1698145281919,0.000148121,0.00048230339,-0.0001644197999999
1698145281934,0.0002822389999999,0.000454021,-0.0003012959
1698145281947,0.000185826,0.0004444419999999,-0.0002921423999999
1698145281963,7.287599999999993e-05,0.000267057,-0.000186597
1698145281976,0.000112921,7.154800000000005e-05,1.2325000000000096e-05
1698145281988,0.0002617579999999,-0.000103247,6.966999999999998e-05
1698145282002,-9.798900000000016e-05,-0.0003417019999999,6.659799999999996e-05
1698145282017,-0.0001726969999999,-0.000115917,0.0004308819
1698145282032,2.2320000000000152e-05,-5.073699999999992e-05,0.0002584134
1698145282045,2.68e-05,-0.0008581881,0.00063711834
1698145282059,-0.000254146,-0.0011259228,0.00061453556
1698145282073,2.6683e-05,-0.0004037601,0.0008617468
1698145282086,2.2620000000002707e-06,0.0007192464999999,0.0010715
1698145282101,0.0001042789999999,0.001314578,0.000359607
1698145282112,0.000202296,0.0008482004999999,0.000511222
1698145282129,5.933499999999977e-05,0.0003306259999999,-0.000137731
1698145282141,6.928400000000019e-05,-0.0002271789999999,3.0480000000002866e-06
1698145282156,-3.604000000000021e-05,-0.000782472,-0.000301668
1698145282169,5.9571000000000016e-05,-0.0011534941,8.084200000000024e-05
1698145282182,0.000256517,-0.0005048270999999,2.286999999999689e-06
1698145282197,0.000174864,-0.0005238848,7.286300000000027e-05
1698145282211,-0.0001115919999999,6.745999999999987e-05,-0.000106871
1698145282226,-3.1635000000000127e-05,0.0006568823,-3.5489999999998266e-06
1698145282240,-3.5719999999999936e-05,0.0001371867999999,-0.000362775
1698145282255,-0.000136388,-3.5424200000000006e-05,-0.000198076
1698145282266,-0.0003433219999999,-0.0002324591999999,-0.0002213229999999
1698145282281,-0.0002365069999999,0.0001542187999999,9.436199999999974e-05
1698145282295,-0.000280625,0.0001844972,0.000149234
1698145282309,-0.000303596,0.0004784849999999,0.0001912859999999
1698145282322,-0.0003047569999999,-8.81778e-05,0.000477061
1698145282337,-2.24750000000001e-05,6.006079999999999e-05,0.000287379
1698145282351,-0.000113472,-2.5481599999999983e-05,0.0003672129999999
1698145282364,-0.0002213609999999,0.0004579478,0.0002346359999999
1698145282378,-0.0002527359999999,0.0006981610999999,0.0001989699999999
1698145282392,-1.2835000000000103e-05,0.000731217,0.000185156
1698145282406,0.000127748,0.000516584,4.884199999999946e-05
1698145282419,0.000284841,-0.000342933,0.0003626269999999
1698145282433,0.0002522189999999,-0.000272323,0.000433118
1698145282447,4.762900000000042e-05,-0.0002552009999999,0.0004333209999999
1698145282462,0.0001181159999999,-0.000363108,0.0005693759999999
1698145282477,0.0001674829999999,-0.0005073507,0.000505806
1698145282491,0.00024079,2.2238699999999967e-05,0.000404502
1698145282503,0.0002089309999999,-0.0001319877,0.000111561
1698145282516,0.000237152,5.474850000000003e-05,0.0002056059999999
1698145282532,0.0002520639999999,0.0002663271999999,-2.5263000000000195e-05
1698145282545,0.000394868,-0.0002708866999999,2.68940000000004e-05
1698145282559,0.0001978589999999,0.0002369006999999,2.6612999999999984e-05
1698145282572,8.107399999999999e-05,-0.0002593443999999,-3.729700000000037e-05
1698145282586,-9.930499999999984e-05,0.0002655593999999,-2.311999999999973e-05
1698145282600,-0.000373656,-7.491349999999986e-05,-0.000210608
1698145282614,-0.0001884869999999,0.0002501605,-0.000151082
1698145282629,-0.0003587029999999,0.0002289919999999,-0.0001441089999999
1698145282643,-9.436200000000018e-05,0.000243691,-5.625600000000019e-05
1698145282656,-0.0001771899999999,-0.0003172559999999,-5.545699999999921e-05
1698145282670,0.0001879989999999,-1.6529000000000153e-05,0.0002874349999999
1698145282685,8.892299999999987e-05,3.934300000000006e-05,6.932999999999939e-05
1698145282699,4.785200000000014e-05,-0.000312406,-1.10459999999998e-05
1698145282712,7.700700000000003e-05,-0.0004072679999999,-0.0001540249999999
1698145282725,1.279999999999771e-06,-0.0004194953,-0.000199316
1698145282739,7.019300000000008e-05,-0.00030953767,-0.0002175609999999
1698145282754,0.0002005079999999,-0.00010272623,0.000115727
1698145282769,-3.6619999999997614e-06,0.00022578624,0.0003608689999999
1698145282781,0.0004615999999999,0.00079107056,0.0005721369999999
1698145282795,0.000346329,0.0006606344,0.000359724
1698145282808,0.0002339199999999,4.598299999999988e-05,9.302299999999936e-05
1698145282822,-3.611099999999991e-05,-0.0002342429999999,-0.00014046
1698145282837,-9.662499999999992e-05,-1.29380000000001e-05,-0.0002385919999999
1698145282851,-9.87570000000001e-05,-1.0891000000000067e-05,-0.000435569
1698145282866,-8.570600000000006e-05,7.567000000000012e-05,-0.00037957
1698145282881,4.765000000000108e-06,0.0004890069999999,-0.000304604
1698145282893,1.1338999999999967e-05,0.000413384,-0.0001869199999999
1698145282906,-0.0001477029999999,0.000193543,-0.000429337
1698145282920,-0.000155515,0.0001292709999999,-0.000295769
1698145282935,-8.433599999999996e-05,-0.0003448659999999,-0.0002508839999999
1698145282948,-0.0003303069999999,-0.000223185,-0.000228495
1698145282962,-0.000451513,8.802399999999991e-05,-0.0003232199999999
1698145282977,-0.0001445969999999,0.000184706,-0.0001061739999999
1698145282990,-0.000151815,0.00020483,-1.740499999999985e-05
1698145283003,1.9621999999999955e-05,0.000173935,1.1989999999999916e-05
1698145283017,-0.0001605619999999,0.0001616759999999,-9.179200000000026e-05
1698145283032,0.000215499,0.0003559,-2.8641000000000257e-05
1698145283046,0.0001714029999999,0.0001872469999999,-2.607799999999969e-05
1698145283059,0.000400844,-0.0005144289999999,0.000138832
1698145283073,0.000337765,-0.001206141,-0.0001896359999999
1698145283086,-5.481400000000004e-05,-0.000614324,-0.000249693
1698145283100,0.0003211759999999,-0.0006368736,-3.377399999999944e-05
1698145283115,-0.0001841399999999,4.0739300000000025e-05,-0.000121477
1698145283127,0.0001604609999999,0.0004446657999999,-2.992199999999993e-05
1698145283142,-0.0001324819999999,0.0001387195,-7.011400000000046e-05
1698145283155,0.00013225,-0.0003122003,-0.0001425519999999
1698145283170,-0.0004104339999999,-0.0009454939,-6.230099999999985e-05
1698145283184,-0.000245738,-0.0006079548,-0.000161529
1698145283197,-0.000389958,-0.00073419,-1.940000000000188e-06
1698145283211,-6.04519999999999e-05,-0.000309667,1.2457000000000006e-05
1698145283226,-0.0001057979999999,-0.0007481879999999,-0.0002170549999999
1698145283239,-2.484700000000015e-05,-2.7375000000000056e-05,-0.000300509
1698145283253,-0.0004929459999999,-7.006999999999847e-06,-0.000246886
1698145283268,0.00033438,0.0006022319999999,-5.736000000000109e-06
1698145283281,-3.220300000000018e-05,0.000522988,-6.915999999999997e-05
1698145283295,6.95959999999999e-05,2.664099999999999e-05,-0.0002834339999999
1698145283308,0.000207986,-9.4654e-05,-0.0004711559999999
1698145283322,-0.000164143,-0.000227861,-0.000738341
1698145283336,0.0001907729999999,-2.578400000000005e-05,-0.0007752818
1698145283351,0.000133106,-0.000805283,-0.0008646717
1698145283364,-0.0003137409999999,-0.0011949859999999,-0.0013166555
1698145283378,-0.000393218,-0.000617137,-0.000983573
1698145283393,-0.0005859799999999,-0.0001434719999999,-0.001065322
1698145283406,-0.0004108639999999,0.0006054269999999,-0.000747176
1698145283419,-0.000440662,7.109000000000022e-05,-0.0006714249999999
1698145283433,-0.0006249889999999,0.000515367,-0.000659131
1698145283447,-0.000256652,0.0001424909999999,-0.000520179
1698145283461,0.000106354,0.000391951,-0.0002028189999999
1698145283476,-5.332400000000043e-05,0.0004992819999999,0.000149472
1698145283492,0.000353433,0.000600172,0.0003389119999999
1698145283507,0.0002889429999999,0.0007995821999999,0.000249403
1698145283518,0.0005738399999999,0.0005538962,0.0003769289999999
1698145283533,0.000574845,-0.0001008968,0.000390184
1698145283546,0.0001026899999999,-0.0004028117,0.0003143879999999
1698145283560,0.000170781,-0.0011441209,-4.350099999999961e-05
1698145283574,-9.958000000000015e-05,-0.0016736849999999,-0.0002339919999999
1698145283588,-0.0001917519999999,-0.0016086579999999,-0.000356789
1698145283600,0.000155099,-0.000474489,-1.1965000000000066e-05
1698145283615,-0.00016099,0.000778806,6.960899999999999e-05
1698145283629,0.0001915269999999,0.0006708419999999,0.000175611
1698145283643,-3.685999999999707e-06,0.0007215379999999,0.000138713
1698145283656,-0.000533495,-8.83699999999982e-06,-7.571799999999979e-05
1698145283671,-0.0004598499999999,-0.0004670729999999,-0.000179759
1698145283685,-0.000112293,-0.000567339,-0.0001687879999999
1698145283698,-0.0001238999999999,-0.000275645,-0.000271615
1698145283710,-0.000329506,0.000719146,-5.7138999999999454e-05
1698145283725,-0.0004700469999999,0.001147074,-8.531300000000006e-05
1698145283739,-0.000223168,0.0019159289999999,0.000383375
1698145283753,-0.0003888789999999,0.0016504237,0.0002078179999999
1698145283768,-0.000280978,0.0008837922999999,0.000373791
1698145283782,-0.000618475,7.536000000000044e-06,0.000432726
1698145283795,-0.0003036209999999,-0.0001796059999999,0.0005641169999999
1698145283810,-0.000240452,-0.000555417,0.0002851899999999
1698145283825,-5.7256999999999794e-05,-0.0007486423,0.000319339
1698145283838,-0.000258369,-0.0008456677,0.000283227
1698145283851,-0.0002719009999999,0.0003917224,0.0005245359999999
1698145283865,-0.000208638,0.00049748755,0.000887077
1698145283878,-0.0003091169999999,0.00045405035,0.001042659
1698145283894,0.000149993,-7.491620000000003e-05,0.0008906372
1698145283907,0.0001526949999999,-0.0004283966,0.0010229058
1698145283920,0.0002582349999999,-0.0003227623,0.000726914
1698145283934,0.00039846,-0.0004805412,0.000840071
1698145283947,0.000454361,-0.000530343,0.000752133
1698145283962,0.0003662399999999,-0.000907034,0.0006432849999999
1698145283977,0.0004687659999999,-0.0002836399999999,0.000723446
1698145283990,0.0007326279999999,-5.625899999999991e-05,0.000889212
1698145284003,0.000206847,0.000686045,0.000931538
1698145284017,0.0006010909999999,0.0005210649999999,0.0013153699999999
1698145284031,0.0002413509999999,-0.0001105489999999,0.001016127
1698145284045,0.000350188,-0.000578999,0.0011433479999999
1698145284059,0.000150257,-0.0008584259999999,0.00084728
1698145284071,0.0004611469999999,-0.000531975,0.00090896
1698145284086,0.0004191189999999,-0.000334504,0.00081751
1698145284101,0.000466087,0.000151341,0.0010558799999999
1698145284115,0.0007859239999999,0.0001563829999999,0.00105824
1698145284131,0.000778545,-3.968100000000018e-05,0.00101721
1698145284142,0.0009089401999999,-0.000756034,0.0010665299999999
1698145284156,0.0010405130999999,-0.0007034709999999,0.00113365
1698145284170,0.0010182517,0.000634578,0.00111152
1698145284183,0.001051225,0.0016372849999999,0.0006855599999999
1698145284198,0.0008731049999999,0.001162373,0.00038942
1698145284212,0.000962786,4.0808000000000033e-05,0.0002176399999999
1698145284225,0.0006881689999999,-0.000486559,-9.806999999999871e-05
1698145284238,0.001035923,-0.000806259,3.1670000000001e-05
1698145284254,0.0008525579999999,9.31100000000004e-05,5.55999999999994e-05
1698145284268,0.000875498,0.0005680609999999,-9.939999999999947e-06
1698145284281,0.0007942899999999,0.0009951439999999,-0.00020347
1698145284294,0.0007586799999999,0.0004715677999999,-0.00019796
1698145284308,0.0002634899999999,0.0002078185,-0.0003445899999999
1698145284322,0.0003353169999999,-0.0004310893,-0.00033323
1698145284336,0.00027823,-0.0003396029999999,-0.00058849
1698145284349,0.0003449899999999,-0.000521065,-0.00057522
1698145284365,-0.00019388,0.0001456389999999,-0.00096361
1698145284378,-0.0002711299999999,0.000412088,-0.0010025999999999
1698145284391,-0.0002775899999999,0.0006444202999999,-0.0012962899999999
1698145284405,-0.000631965,-0.0001076623999999,-0.00134393
1698145284420,-0.000514962,-0.0005299219,-0.0011097
1698145284435,-0.0001594189999999,-0.0004124819999999,-0.00055079
1698145284447,-0.000401829,-0.000340417,-0.0007596299999999
1698145284461,-0.0003920659999999,-0.000416762,-7.567000000000164e-05
1698145284476,-0.0008725809999999,-0.0007394239999999,-0.0002319799999999
1698145284490,-0.0003391799999999,-0.000489681,3.113000000000074e-05
1698145284504,-0.000760249,-0.00084674,-0.00042615
1698145284517,-0.000522143,-0.0002818839999999,-0.0003254999999999
1698145284531,-0.0002477529999999,4.24179999999998e-05,-0.00012167
1698145284545,-0.0002341699999999,0.000646602,-8.396999999999918e-05
1698145284560,-0.000359836,0.0003772289999999,-0.00027336
1698145284573,-0.0001139219999999,0.0004539019999999,-0.000326085
1698145284587,4.730300000000028e-05,0.0009612679999999,-0.000187858
1698145284600,-0.000412996,0.001241114,-0.0004299799999999
1698145284613,-0.0001495109999999,0.0008459575,-0.0002974839999999
1698145284629,-0.0004841859999999,0.00053414,-0.0003968249999999
1698145284643,-0.00058277,-0.0001167601,-0.000426672
1698145284657,-0.000986619,-5.4677970000000005e-05,-0.0001844769999999
1698145284671,-0.0010872171999999,-0.00052254863,-0.00017609
1698145284684,-0.00082488028,-0.0002219391999999,0.0002199999999999
1698145284698,-0.00141192952,-0.0004390346,6.977200000000093e-05
1698145284712,-0.0009303189999999,-0.0004001139999999,0.0001856849999999
1698145284726,-0.000877067,-0.0006441,-6.715399999999982e-05
1698145284740,-0.000788592,-0.00069577,-0.000256772
1698145284753,-0.0007196979999999,-0.000846706,-0.0001841139999999
1698145284767,-0.000517771,-0.0006994419999999,-8.206100000000046e-05
1698145284781,-0.000662803,-0.000239865,-3.984999999999926e-05
1698145284795,-0.000122352,-0.0004309569999999,0.0002693079999999
1698145284809,-0.0006746039999999,-0.000127041,0.000398296
1698145284821,-4.551700000000013e-05,0.000417962,0.0004386039999999
1698145284836,0.0001707849999999,0.000889813,0.000166426
1698145284850,0.0002236169999999,0.0007612869999999,-0.000138409
1698145284866,0.000277873,0.00057594,-0.0004395719999999
1698145284879,8.018099999999948e-05,0.000398724,-0.0009254739999999
1698145284893,-5.460399999999976e-05,0.000101425,-0.000863268
1698145284907,0.0005077609999999,0.0002234679999999,-0.0007423129999999
1698145284919,1.077999999999843e-06,4.022900000000013e-05,-0.000766989
1698145284933,-6.473899999999942e-05,0.00038637,-0.000526957
1698145284947,0.0003573259999999,0.0008050566999999,-0.0003337719999999
1698145284963,0.000281797,0.0008508094,-0.000321182
1698145284977,0.0001398839999999,-8.716209999999998e-05,-0.000251837
1698145284997,2.060899999999956e-05,-0.0005172091,-4.476800000000015e-05
1698145285003,-9.012999999999556e-06,-0.0001410661999999,1.897400000000016e-05
1698145285015,-0.000141561,-0.0002379199999999,-0.0003129339999999
1698145285030,-3.2584999999999906e-05,-5.989300000000075e-06,-9.321200000000008e-05
1698145285045,0.000349294,0.0006656363,-0.0001496269999999
1698145285059,0.000493419,0.0007605665,-0.00012422
1698145285073,0.000658952,0.0003368158,-5.922899999999962e-05
1698145285087,0.0009993729999999,-0.000233968,-0.000199107
1698145285102,0.00098971,-0.0005232208,-0.000405988
1698145285115,0.0009211553,-0.0001159372,-0.0002814449999999
1698145285128,0.000553332793,7.339260000000002e-05,-3.855299999999998e-05
1698145285143,0.000625766507,0.0004815904,0.000168871
1698145285155,0.0006208414,0.0002887208999999,-4.715100000000027e-05
1698145285170,0.00051534,-0.0003580326,-0.0001577989999999
1698145285184,0.000517208,-0.00055799764,-0.000192557
1698145285198,0.0001900829999999,-0.0007858154599999,-9.746699999999997e-05
1698145285212,0.000475374,-0.0010275082,-6.956299999999992e-05
1698145285225,0.0006628189999999,-0.0009554109999999,-1.0458000000000082e-05
1698145285239,-0.0001162879999999,-0.001210826,-2.7738000000000025e-05
1698145285253,0.0004257589999999,-0.00060798,0.000737169
1698145285266,0.0001898749999999,0.000890624,0.00109152
1698145285281,0.0004601509999999,0.0013746359999999,0.0009610269999999
1698145285296,0.000256134,0.0014149312,0.000492852
1698145285309,0.0003868199999999,5.273129999999997e-05,4.170900000000002e-05
1698145285323,0.000553383,-0.0005316454999999,-0.000299467
1698145285337,0.0007884499999999,3.463199999999993e-05,-0.0002047509999999
1698145285351,0.000650875,0.0003246637,-5.192500000000041e-05
1698145285365,0.0009230909999999,-4.164529999999998e-05,8.17700000000001e-05
1698145285380,0.000870391,-0.0007398284,0.0003807569999999
1698145285392,0.0013247759999999,-0.000729415,0.000776615
1698145285406,0.0010546499999999,-0.000737995,0.000818733
1698145285421,0.00093428,0.0003194339999999,0.0004345859999999
1698145285435,0.00095046,0.000431617,0.0002773989999999
1698145285448,0.0009541699999999,0.0003225849999999,9.980100000000006e-05
1698145285462,0.0006321699999999,-0.000410367,0.000173982
1698145285476,0.00042141,-0.0002213569999999,0.000373295
1698145285490,0.0003909199999999,-0.000224196,0.000773738
1698145285503,0.00030428,-0.0003865309999999,0.0009373699999999
1698145285518,-9.769999999999918e-05,-0.0006591419999999,0.000927805
1698145285532,2.3639999999998385e-05,-0.00134066,0.0009677699999999
1698145285545,-0.0001972699999999,-0.0021289839999999,0.0010415499999999
1698145285559,-5.975999999999898e-05,-0.00233206,0.00138513
1698145285573,-4.148999999999993e-05,-0.001751084,0.00159084
1698145285585,0.0001552599999999,-0.00104271,0.0019921799999999
1698145285600,0.0002011399999999,-0.00097411,0.00233592
1698145285616,5.448000000000258e-05,-0.0014696199999999,0.0020093599999999
1698145285629,2.0789999999999698e-05,-0.0026114399999999,0.00163558
1698145285643,7.287999999999739e-05,-0.00306184,0.0015478699999999
1698145285657,-0.0004055999999999,-0.0020258399999999,0.0011985899999999
1698145285671,-0.0002145199999999,-0.00057448,0.00112949
1698145285684,0.00026667,0.00138677,0.00112887
1698145285699,-6.090000000000262e-06,0.0024145099999999,0.0005251299999999
1698145285712,0.00028372,0.0026996,0.00067708
1698145285725,0.0006249399999999,0.00331163,0.000256
1698145285739,0.00069139,0.0026941299999999,0.00014803
1698145285753,0.00085742,0.002280852,-4.996999999999988e-05
1698145285768,0.0005554899999999,0.000942545,-0.00022513
1698145285782,5.378000000000327e-05,0.0006391489999999,-0.00010596
1698145285795,0.0003210299999999,0.001288361,0.00037499
1698145285809,0.0001263099999999,0.001293898,0.0007426599999999
1698145285824,0.00046707,0.001081345,0.00130605
1698145285837,0.0001733299999999,0.0002893979999999,0.0014964999999999
1698145285850,0.00018969,2.138900000000013e-05,0.00152233
1698145285866,0.00050008,-0.000766156,0.0018887799999999
1698145285880,0.0004694599999999,-0.0010258619999999,0.0019659099999999
1698145285894,0.00062134,-0.00098086,0.00213673
1698145285906,0.00076286,-0.0009419049999999,0.0026234399999999
1698145285921,0.0008449999999999,-0.0008620279999999,0.0025755299999999
1698145285934,0.0007546,0.0002157179999999,0.00289643
1698145285948,0.00095338,0.000778133,0.0029616399999999
1698145285962,0.00097086,0.000732716,0.00277643
1698145285976,0.00145203,0.0007338989999999,0.0031744299999999
1698145285989,0.0016062099999999,-0.000221861,0.00280628
1698145286004,0.0016322,-0.0014616259999999,0.00241829
1698145286018,0.0018004,-0.002325758,0.00193625
1698145286031,0.00155019,-0.000732022,0.0019912599999999
1698145286045,0.0020304599999999,0.00061875,0.00189633
1698145286058,0.0021298699999999,0.0009296279999999,0.0016902199999999
1698145286073,0.0021397,-0.0003980939999999,0.00134775
1698145286085,0.00204307,-0.0015336889999999,0.0010747599999999
1698145286100,0.00230338,-0.0016068899999999,0.00093036
1698145286113,0.0023808999999999,-0.00206245,0.0011779299999999
1698145286129,0.00203044,-0.0021727699999999,0.0016405599999999
1698145286142,0.0016267999999999,-0.00221127,0.00206183
1698145286158,0.00149355,-0.0022309899999999,0.0024195899999999
1698145286170,0.0015873799999999,-0.00171287,0.00250269
1698145286183,0.0022088899999999,-0.0004569799999999,0.0027381699999999
1698145286198,0.00244673,0.00082776,0.0030623099999999
1698145286212,0.0025537299999999,0.0004421299999999,0.00222115
1698145286226,0.00257746,-0.0011354999999999,0.00175401
1698145286239,0.0024828699999999,-0.00226739,0.00093461
1698145286253,0.0024878899999999,-0.00175267,0.0011064799999999
1698145286267,0.00259546,-0.00062181,0.00145417
1698145286281,0.0019758899999999,0.00020547,0.0017752
1698145286295,0.00205846,-0.00020822,0.00218841
1698145286309,0.0022557299999999,-0.00192016,0.0021194999999999
1698145286323,0.0021826799999999,-0.0016600899999999,0.0021492
1698145286336,0.00242108,-0.0018434799999999,0.0026192999999999
1698145286350,0.00209977,-0.00198604,0.002762
1698145286365,0.0022572099999999,-0.0033181099999999,0.0031117999999999
1698145286379,0.0018115199999999,-0.0048341299999999,0.0028727
1698145286394,0.00167959,-0.00520984,0.0031583
1698145286405,0.0014245299999999,-0.00541345,0.0035362
1698145286419,0.0005531,-0.00473901,0.0039275
1698145286435,0.00126313,-0.00240826,0.0049357999999999
1698145286447,0.0016370599999999,0.00123675,0.0052216999999999
1698145286463,0.00095419,0.00284732,0.0052515999999999
1698145286476,0.0005829599999999,0.00209063,0.0047911
1698145286490,0.0002901599999999,0.0004905399999999,0.0031324999999999
1698145286505,5.589999999999762e-06,0.0010172899999999,0.0024077
1698145286517,-9.477999999998876e-05,0.00345125,0.0025332999999999
1698145286532,-0.00089471,0.00501791,0.0024185
1698145286546,-0.0015098899999999,0.0042422199999999,0.0026025999999999
1698145286562,-0.0021137599999999,0.00221042,0.0025170999999999
1698145286574,-0.00246288,3.090000000000037e-05,0.0026775
1698145286588,-0.00287766,-0.00013986,0.0035443999999999
1698145286601,-0.0028948899999999,-0.0004049599999999,0.0046126
1698145286614,-0.00323383,-0.00073029,0.0060646999999999
1698145286629,-0.0045051399999999,0.00011478,0.006817
1698145286642,-0.00516348,0.00099432,0.0080323999999999
1698145286657,-0.0050852399999999,0.0016481999999999,0.008501
1698145286671,-0.00501111,0.00142437,0.0092155999999999
1698145286685,-0.00487241,0.0020036299999999,0.0100693
1698145286698,-0.00517923,0.00163326,0.0102886
1698145286711,-0.0050878899999999,0.0022467899999999,0.0109322999999999
1698145286726,-0.0047393099999999,0.0030796799999999,0.0119767999999999
1698145286740,-0.00540637,0.00234365,0.0123067
1698145286753,-0.0056948,0.00032393,0.0118676
1698145286767,-0.0063024799999999,-0.0016536299999999,0.0122420999999999
1698145286782,-0.00604791,-0.00202773,0.0120259
1698145286795,-0.00604011,-0.0026336799999999,0.0134302999999999
1698145286809,-0.005702067,-0.00218797,0.0138411
1698145286823,-0.0049880666,-0.00281791,0.0146005999999999
1698145286837,-0.0050959494,-0.00316306,0.0154822
1698145286852,-0.004759013,-0.0033345899999999,0.0158378
1698145286867,-0.004779914,-0.0035435399999999,0.0155792
1698145286879,-0.00467702,-0.0032622799999999,0.0154748999999999
1698145286893,-0.0048520999999999,-0.0037632299999999,0.0142228
1698145286907,-0.00522922,-0.00403134,0.0154108
1698145286918,-0.0053105599999999,-0.0022691099999999,0.0154651
1698145286934,-0.00507759,-0.00141645,0.0158364999999999
1698145286948,-0.00569021,-0.0027121099999999,0.0161002
1698145286962,-0.00543828,-0.00384482,0.0149182999999999
1698145286975,-0.00573726,-0.0034793899999999,0.0143654
1698145286990,-0.0059560699999999,-0.0014661299999999,0.0151719999999999
1698145287003,-0.00622857,-0.0004493899999999,0.0138743
1698145287017,-0.0070397499999999,-0.00025309,0.0132086999999999
1698145287031,-0.0075642,-0.0011938999999999,0.0123834
1698145287045,-0.00851011,-0.0007056,0.0125087999999999
1698145287060,-0.0083707499999999,0.0012270399999999,0.0127217
1698145287074,-0.0076811999999999,0.00304051,0.0124444999999999
1698145287089,-0.0076164999999999,0.0035522699999999,0.0130700999999999
1698145287104,-0.0072906999999999,0.00298816,0.0118521
1698145287114,-0.0071545,0.0039899799999999,0.0117992
1698145287129,-0.0070125,0.0050202499999999,0.0127288999999999
1698145287143,-0.0062878999999999,0.00523734,0.0132790999999999
1698145287157,-0.0049541,0.00708165,0.0134983
1698145287172,-0.0048923999999999,0.0122354899999999,0.0148852999999999
1698145287184,-0.0049492999999999,0.01738113,0.0157724999999999
1698145287198,-0.003945,0.015767057,0.0123395
1698145287212,-0.0021451,0.011914963,0.0080154
1698145287225,0.0015248999999999,0.01562162,0.0059371999999999
1698145287239,0.0051152,0.025305,0.0073797999999999
1698145287256,0.0075217999999999,0.0223982299999999,0.0034353
1698145287268,0.0085277,0.0125161399999999,-0.0016709999999999
1698145287282,0.0096777,0.00191318,-0.007799
1698145287296,0.0122033999999999,-0.00507639,-0.0131928
1698145287308,0.0157254,-0.0097050199999999,-0.0179492
1698145287323,0.0178386499999999,-0.0135805199999999,-0.0219873
1698145287337,0.01871841,-0.01451962,-0.0241822999999999
1698145287350,0.01705967,-0.0088248999999999,-0.0215256999999999
1698145287365,0.01597089,-0.00050667,-0.0193463999999999
1698145287378,0.0139700899999999,0.0059847599999999,-0.0165427999999999
1698145287393,0.01257152,0.0083112799999999,-0.0152404
1698145287407,0.01199677,0.00660363,-0.0159184
1698145287421,0.00920342,0.0047509399999999,-0.0159335999999999
1698145287434,0.00667882,0.0042270699999999,-0.0162921999999999
1698145287448,0.00352881,0.0052436,-0.0158907999999999
1698145287462,0.00105436,0.0042136799999999,-0.0150451
1698145287476,-0.00032908,0.00097672,-0.0129554
1698145287491,-0.0014660699999999,-0.0017777699999999,-0.0114955999999999
1698145287504,-0.0017402,-0.0041413299999999,-0.0104874
1698145287518,-0.0012886099999999,-0.00386551,-0.0073962999999999
1698145287532,-0.00092331,-0.0045701999999999,-0.0065533
1698145287546,-9.465999999999988e-05,-0.00622438,-0.0055885999999999
1698145287560,0.0011758099999999,-0.00782601,-0.0051568999999999
1698145287573,0.00264905,-0.0095150199999999,-0.0045878
1698145287586,0.0032575,-0.0085615599999999,-0.0031339999999999
1698145287601,0.00415421,-0.00805824,-0.0021290999999999
1698145287616,0.0052825,-0.00610467,-0.0010152999999999
1698145287629,0.0066546999999999,-0.0036471099999999,0.0012089999999999
1698145287644,0.0072827299999999,0.00139488,0.0047425
1698145287656,0.00757475,0.0037679799999999,0.0066945999999999
1698145287670,0.00733339,0.00115779,0.0061933
1698145287685,0.0077990999999999,-0.00207037,0.0055347
1698145287699,0.00885037,-8.39499999999993e-05,0.0056541999999999
1698145287712,0.0083321599999999,0.0008328299999999,0.0060501
1698145287726,0.0076684399999999,-0.00038146,0.0068933999999999
1698145287739,0.00623241,-0.0033059899999999,0.007189
1698145287752,0.0042056,-0.00445616,0.0065269
1698145287768,0.0048282999999999,-0.00424845,0.0065215
1698145287782,0.0058065,-0.0029705449999999,0.0066360999999999
1698145287796,0.0071285999999999,-0.004485577,0.0070246
1698145287809,0.0062067999999999,-0.00556273,0.0075883999999999
1698145287823,0.0045124,-0.004717439,0.0086308
1698145287837,0.0033984999999999,-0.000920228,0.0092896
1698145287851,0.0030531,0.002660444,0.0105667999999999
1698145287865,0.0041059,0.004455267,0.0107882999999999
1698145287879,0.0051707999999999,0.005625086,0.0109982
1698145287893,0.0053139,0.006624402,0.0112480999999999
1698145287906,0.0049353,0.00598971,0.0112381999999999
1698145287920,0.0051907999999999,0.0080165999999999,0.0112535
1698145287934,0.006871,0.01183443,0.0123299999999999
1698145287948,0.0080880999999999,0.0140158099999999,0.0112617999999999
1698145287962,0.0086726,0.01530223,0.0115407
1698145287975,0.0079424999999999,0.0157496899999999,0.0103632999999999
1698145287989,0.0104585,0.0207979199999999,0.0119441
1698145288002,0.0116894999999999,0.0281404,0.0128114999999999
1698145288017,0.0134316999999999,0.0377156999999999,0.0146872
1698145288033,0.0128793,0.0425486999999999,0.0154606999999999
1698145288046,0.0105086999999999,0.0404521999999999,0.0120369999999999
1698145288060,0.0075690999999999,0.039686,0.0087381
1698145288074,0.0037815,0.0423314,0.0035813999999999
1698145288087,0.0008708,0.0427811,-0.004081
1698145288101,-0.0034226,0.0325064999999999,-0.0168973999999999
1698145288116,-0.0072568999999999,0.0139844,-0.0297469
1698145288128,-0.0108623,0.0044553999999999,-0.0374841999999999
1698145288141,-0.0122983999999999,0.0047650999999999,-0.0394797
1698145288155,-0.0137263,0.0085512,-0.0379409
1698145288170,-0.0166896,0.0104516,-0.0370943999999999
1698145288184,-0.0187993999999999,0.0071466999999999,-0.0363484
1698145288198,-0.0199575999999999,0.002208,-0.034698
1698145288212,-0.0182876999999999,0.001307,-0.0304922
1698145288228,-0.0160419,0.0043506999999999,-0.0289051999999999
1698145288242,-0.0123799999999999,0.0056603,-0.0259627
1698145288256,-0.0093706999999999,0.0054991999999999,-0.020801
1698145288270,-0.0075937999999999,0.006334,-0.0158267
1698145288281,-0.00732132,0.0049654,-0.0129325999999999
1698145288296,-0.0060837299999999,0.000556,-0.0095871
1698145288310,-0.00488581,-0.0067277,-0.0065703999999999
1698145288322,-0.0036413299999999,-0.0127743,-0.002637
1698145288338,-0.00336422,-0.0212466,0.0003909999999999
1698145288353,-0.00314337,-0.0255907999999999,0.0034487
1698145288366,-0.0034310099999999,-0.0279029,0.0066540999999999
1698145288379,-0.0037515999999999,-0.0275584999999999,0.0086892999999999
1698145288393,-0.00420871,-0.0261406,0.0103194
1698145288407,-0.0045603299999999,-0.0290066999999999,0.0116219999999999
1698145288419,-0.00447772,-0.0298337,0.0106739
1698145288433,-0.0061314899999999,-0.0369037999999999,0.0111477
1698145288448,-0.00625222,-0.037732,0.0112720999999999
1698145288463,-0.0052866999999999,-0.0342467999999999,0.0130538
1698145288477,-0.00349642,-0.0272438,0.0142897
1698145288490,-0.00236776,-0.0239972999999999,0.0151101
1698145288505,-0.00305872,-0.02670235,0.0156781999999999
1698145288516,-0.00368921,-0.027659,0.0142035999999999
1698145288531,-0.0041233999999999,-0.0272780499999999,0.0152656
1698145288545,-0.0033033999999999,-0.02276289,0.0155494999999999
1698145288560,-0.00243268,-0.0176926128,0.0148477999999999
1698145288574,-0.00312163,-0.0140792271999999,0.0124490999999999
1698145288589,-0.005846557,-0.01187464,0.010757
1698145288602,-0.0065974967,-0.00810467,0.0099593
1698145288615,-0.0052816983,-0.00430581,0.0087717
1698145288630,-0.004744648,0.00030427,0.0082503999999999
1698145288643,-0.00629323,0.00599703,0.006031
1698145288658,-0.0091940299999999,0.0102931499999999,0.0041719
1698145288672,-0.0114267599999999,0.012805481,0.0025880999999999
1698145288685,-0.01141828,0.0154360729999999,0.000672
1698145288699,-0.01059005,0.021131456,-0.0002024999999999
1698145288712,-0.0107093899999999,0.03312275,-0.0007222
1698145288727,-0.01122426,0.04813784,-0.0004285
1698145288743,-0.01116066,0.0684090999999999,0.0028042
1698145288754,-0.00767726,0.0798211,0.0081485
1698145288768,-0.0032277,0.0765257999999999,-0.0012463999999999
1698145288783,-0.0001754999999999,0.0761216,-0.0024414999999999
1698145288796,0.0025080999999999,0.0616005,-0.0035751
1698145288809,0.0069280199999999,0.0433618,-0.0163067
1698145288823,0.01133164,0.0200885999999999,-0.0211968
1698145288837,0.01422579,0.0037755,-0.0265043999999999
1698145288852,0.0143966499999999,-0.0038559999999999,-0.0268050999999999
1698145288866,0.01395854,-0.0013319999999999,-0.0240506
1698145288879,0.0145625999999999,0.0048561999999999,-0.0234033999999999
1698145288893,0.01570781,0.0042784,-0.0245537
1698145288907,0.015292421,-0.0018151,-0.0261951
1698145288919,0.013300359,-0.0080999999999999,-0.0261264999999999
1698145288935,0.01043448,-0.0122795999999999,-0.0257214
1698145288947,0.0058577999999999,-0.0138732,-0.0220948999999999
1698145288963,0.0016801,-0.0137218999999999,-0.0196513999999999
1698145288978,-0.00067041,-0.011437,-0.0154138
1698145288991,-0.0009795099999999,-0.0115200999999999,-0.0116409
1698145289004,-0.00022286,-0.0138286,-0.0083109999999999
1698145289019,6.025000000000474e-05,-0.0207859999999999,-0.0059796
1698145289032,0.0004799399999999,-0.0278106,-0.0023466
1698145289046,0.00112298,-0.0362386,0.0014447
1698145289061,0.0007492199999999,-0.0446033,0.0029537999999999
1698145289074,0.00130546,-0.0453470999999999,0.0073174
1698145289087,0.00186585,-0.0481813,0.0103693999999999
1698145289103,0.0026631599999999,-0.0453757999999999,0.0115611999999999
1698145289115,0.00373122,-0.0357662,0.0123442
1698145289130,0.0043225299999999,-0.0325549,0.0138069
1698145289142,0.00394478,-0.03073373,0.0142013999999999
1698145289155,0.00320088,-0.03088009,0.0142055999999999
1698145289170,0.0021949799999999,-0.03004072,0.0134018
1698145289184,0.00174416,-0.025404958,0.0125848
1698145289199,0.0037486999999999,-0.019939412,0.0116511999999999
1698145289214,0.00577156,-0.01372011,0.0109809
1698145289227,0.0065976599999999,-0.00914357,0.0107228999999999
1698145289240,0.0059051,-0.0047358599999999,0.0101433
1698145289254,0.0048189799999999,-0.00063019,0.0090091999999999
1698145289267,0.00404688,0.0044546999999999,0.0081539999999999
1698145289280,0.00546705,0.0086302899999999,0.0091548
1698145289296,0.00719343,0.0100963,0.0091966
1698145289310,0.0088492,0.01221787,0.0101257
1698145289323,0.0090317,0.014928904,0.0095864999999999
1698145289337,0.0096592999999999,0.0194562559999999,0.0094093999999999
1698145289349,0.0104361,0.0262181799999999,0.0100385
1698145289366,0.0109625999999999,0.02869154,0.0096556
1698145289379,0.0112769,0.0303716,0.0083582999999999
1698145289394,0.0090995,0.0283988,0.0052683
1698145289407,0.0062230999999999,0.0344512999999999,0.0043521999999999
1698145289422,0.0040164,0.0499685,0.0104040999999999
1698145289435,0.0041965999999999,0.0689844,0.0148258
1698145289448,0.002467,0.0646857,0.0057416
1698145289460,-0.0006947,0.0522928999999999,-0.0026370999999999
1698145289475,-0.0044219999999999,0.0419347,-0.0134986999999999
1698145289490,-0.007667,0.0337951999999999,-0.0213686
1698145289505,-0.0088682999999999,0.0244908,-0.0282428999999999
1698145289519,-0.009774,0.0152906999999999,-0.033224
1698145289531,-0.0104979,0.0091413999999999,-0.0331994999999999
1698145289545,-0.0109810999999999,0.0061412,-0.0301954999999999
1698145289558,-0.012113,0.0042327999999999,-0.0296471999999999
1698145289572,-0.0125405999999999,-0.0007901999999999,-0.0265088
1698145289587,-0.01424513,-0.0070101999999999,-0.024871
1698145289602,-0.0144319099999999,-0.0115318,-0.0206410999999999
1698145289613,-0.01229089,-0.0140527999999999,-0.0149038
1698145289629,-0.0112121799999999,-0.016187,-0.0121094999999999
1698145289642,-0.00886679,-0.0164073999999999,-0.0078959
1698145289655,-0.0069632099999999,-0.0117192999999999,-0.0036705999999999
1698145289669,-0.0064232499999999,-0.0105172,-0.0010519999999999
1698145289683,-0.00573071,-0.0126249999999999,0.0011569999999999
1698145289697,-0.00507846,-0.0170566,0.002728
1698145289713,-0.0045825299999999,-0.0230642999999999,0.005725
1698145289727,-0.00369467,-0.0255931999999999,0.0073147999999999
1698145289740,-0.00254743,-0.0201718,0.0066227999999999
1698145289756,-0.00229544,-0.0162899,0.0081974
1698145289767,-0.00211317,-0.016847,0.0098597
1698145289780,-0.0025393799999999,-0.0201043999999999,0.0090893999999999
1698145289795,-0.003123262,-0.0280009999999999,0.0109194
1698145289809,-0.002982904,-0.0312669,0.0113112999999999
1698145289824,-0.0037826929999999,-0.0361901,0.0131073999999999
1698145289839,-0.0035291009999999,-0.0361418,0.0139257
1698145289851,-0.0037913079999999,-0.0353722999999999,0.0141966
1698145289866,-0.003463315,-0.0308794,0.0151457999999999
1698145289879,-0.0036129969999999,-0.02491751,0.0160078999999999
1698145289892,-0.00315596,-0.02077384,0.0159182
1698145289907,-0.0037303799999999,-0.02072077,0.0165884
1698145289921,-0.00498595,-0.02060962,0.0151383999999999
1698145289934,-0.0060339,-0.0185372595,0.0136821999999999
1698145289949,-0.0058352999999999,-0.0157345305,0.0131093999999999
1698145289962,-0.00514772,-0.01074467,0.0111126
1698145289977,-0.00398943,-0.00660507,0.0099335999999999
1698145289998,-0.0040848299999999,-0.00322369,0.0079386999999999
1698145290004,-0.0057771299999999,-0.0005238699999999,0.0062095
1698145290015,-0.00642268,0.0009325099999999,0.0036065
1698145290030,-0.00858077,0.0034127399999999,0.0028676999999999
1698145290044,-0.0084345299999999,0.00869006,0.0041783
1698145290058,-0.00747391,0.01439901,0.0038842
1698145290073,-0.0085534599999999,0.0207024099999999,0.0034179999999999
1698145290085,-0.00917822,0.0244065,0.0026521999999999
1698145290099,-0.0110129,0.0287642799999999,0.0018086
1698145290113,-0.0121577999999999,0.03693092,0.0030486999999999
1698145290129,-0.0113495,0.0462626999999999,0.0042205
1698145290143,-0.0090365,0.051579,0.0032448999999999
1698145290156,-0.0071677999999999,0.0542862999999999,0.0005249999999999
1698145290170,-0.0063654,0.0692077999999999,0.0079019999999999
1698145290183,-0.0042097999999999,0.0717618,0.0015152999999999
1698145290198,-0.0029100999999999,0.0649231999999999,-0.0030928999999999
1698145290211,-0.0022828,0.0437929,-0.0070942999999999
1698145290227,-0.0002893,0.0238159999999999,-0.0169768
1698145290239,0.002886,0.004883,-0.0193243
1698145290253,0.0067912999999999,-0.0035469,-0.0204683999999999
1698145290267,0.0092857,-0.0027135999999999,-0.0170649999999999
1698145290281,0.0108757,0.0019196,-0.0157084
1698145290296,0.0105551999999999,0.0016874,-0.0147270999999999
1698145290309,0.0100497,-0.0039197,-0.0157678
1698145290322,0.0089891,-0.0102422999999999,-0.0161819999999999
1698145290336,0.0080297,-0.015391,-0.0147617
1698145290351,0.0064660799999999,-0.0179168,-0.0139614999999999
1698145290365,0.0044926999999999,-0.0164134999999999,-0.0114859999999999
1698145290379,0.00195101,-0.0138944,-0.0092888
1698145290391,0.0004810199999999,-0.0142707999999999,-0.0084962999999999
1698145290405,-0.0002962399999999,-0.0189672,-0.008626
1698145290421,-0.00084429,-0.0241751,-0.0084059999999999
1698145290434,-0.0012657099999999,-0.0277238,-0.0065482
1698145290446,-0.0013395,-0.0281451999999999,-0.0041462
1698145290463,-0.0017813399999999,-0.0324075999999999,-0.0019162999999999
1698145290476,-0.00092385,-0.0320233,0.0004506
1698145290488,-0.0002117199999999,-0.0321640999999999,0.0022903999999999
1698145290503,0.00094025,-0.0314669,0.0041681
1698145290517,0.0011777699999999,-0.0313158,0.0051957
1698145290531,0.00061827,-0.0284479999999999,0.0065034999999999
1698145290544,-0.00102074,-0.027743,0.0060083999999999
1698145290558,-0.00241186,-0.0283650499999999,0.0054651
1698145290572,-0.0030097499999999,-0.02711918,0.0056296
1698145290586,-0.0016868,-0.0245987599999999,0.0074956999999999
1698145290600,1.4299999999994872e-05,-0.01875293,0.0083640999999999
1698145290615,0.001715,-0.0181752419999999,0.0110965
1698145290628,0.0022799599999999,-0.016124838,0.0122463999999999
1698145290641,0.0037908299999999,-0.0144874,0.013392
1698145290655,0.0054760799999999,-0.0110441,0.0128539
1698145290669,0.00793757,-0.00790591,0.0132923999999999
1698145290684,0.0093540099999999,-0.0051818299999999,0.0141067999999999
1698145290698,0.00979939,-0.0006169599999999,0.0154439
1698145290711,0.00971232,0.00364504,0.0142368999999999
1698145290724,0.0117423899999999,0.0089021399999999,0.0142474
1698145290739,0.01422211,0.01506321,0.0141223999999999
1698145290754,0.0143399199999999,0.0211952909999999,0.012867
1698145290768,0.011864515,0.026924149,0.0115407
1698145290781,0.011619335,0.03085228,0.0108247999999999
1698145290794,0.01311236,0.03367621,0.0101666
1698145290809,0.0143711399999999,0.03527838,0.0093333999999999
1698145290823,0.01341078,0.0426793999999999,0.0085933
1698145290837,0.0094682799999999,0.0498219,0.0089253
1698145290851,0.00605905,0.0551534999999999,0.0066637999999999
1698145290864,0.0027934,0.0544312,0.0035876
1698145290878,0.00030059,0.0551901,0.0026880999999999
1698145290892,-0.00068042,0.0527160999999999,-0.0027614
1698145290906,-0.0007974099999999,0.0417755999999999,-0.0109456999999999
1698145290919,-0.00045328,0.0240347,-0.0190702
1698145290933,-0.00275448,0.0092987999999999,-0.0291169
1698145290947,-0.00732928,-0.0014889999999999,-0.0341006999999999
1698145290961,-0.01246782,-0.0040622,-0.0363287999999999
1698145290975,-0.0134981799999999,0.0024442,-0.0330640999999999
1698145290989,-0.0118831499999999,0.0056349999999999,-0.0314793
1698145291004,-0.00844306,0.0006084,-0.0298236999999999
1698145291018,-0.005788118,-0.0056976,-0.0256917
1698145291032,-0.0048546979999999,-0.0089941999999999,-0.0209802
1698145291046,-0.004745447,-0.0116267999999999,-0.0174803
1698145291060,-0.006016531,-0.0129015,-0.0127490999999999
1698145291073,-0.0065539959999999,-0.0138775999999999,-0.0079311
1698145291086,-0.00588313,-0.015454,-0.0029449
1698145291100,-0.00588907,-0.0175839999999999,0.0014233
1698145291115,-0.0061809,-0.0209642999999999,0.0051368999999999
1698145291129,-0.0074260799999999,-0.0251712,0.0085784
1698145291142,-0.00897665,-0.0247664999999999,0.0112082
1698145291155,-0.01059931,-0.0226189,0.0143859999999999
1698145291169,-0.01115181,-0.0190357999999999,0.0163009
1698145291183,-0.0108849799999999,-0.0195036999999999,0.0168850999999999
1698145291199,-0.01009181,-0.0254615,0.0180745
1698145291212,-0.00838432,-0.0312172,0.0183609999999999
1698145291225,-0.0065603999999999,-0.0319203999999999,0.0182082
1698145291239,-0.0053876,-0.031608,0.0186378
1698145291253,-0.0039036999999999,-0.0300223999999999,0.0181191999999999
1698145291267,-0.004406,-0.0291747,0.018912
1698145291280,-0.0050219999999999,-0.02652804,0.0176014999999999
1698145291296,-0.0055993,-0.0269356399999999,0.0162383999999999
1698145291309,-0.0048057999999999,-0.0283887799999999,0.0150938999999999
1698145291323,-0.0025409,-0.024921635,0.0126543
1698145291337,-0.0014595,-0.021975285,0.0114967
1698145291350,-0.0029878999999999,-0.01984863,0.0115437999999999
1698145291364,-0.005662,-0.01530381,0.0102217999999999
1698145291377,-0.0076443999999999,-0.0109065,0.0114196
1698145291393,-0.0063885,-0.0042905799999999,0.0103621999999999
1698145291407,-0.0047955999999999,-0.00065638,0.0104701999999999
1698145291422,-0.003933,0.00421146,0.0093862999999999
1698145291435,-0.0049987999999999,0.0098590199999999,0.0089605
1698145291447,-0.0066125999999999,0.01198474,0.0075494
1698145291462,-0.0105918999999999,0.01477497,0.0060148999999999
1698145291478,-0.0138527999999999,0.016733251,0.0038955
1698145291491,-0.0140341,0.021316719,0.0032527999999999
1698145291503,-0.0135799999999999,0.03058019,0.0032096
1698145291518,-0.0109302,0.04234848,0.0040797
1698145291532,-0.0071095,0.0647611499999999,0.0099735999999999
1698145291545,0.0011878,0.0773141,0.0071758
1698145291558,0.0096661999999999,0.0711015999999999,-0.004313
1698145291573,0.0128813,0.0726515,-0.0105136
1698145291586,0.0146894999999999,0.0656417999999999,-0.0177505999999999
1698145291600,0.0169331,0.0510921,-0.0253174999999999
1698145291615,0.0210578999999999,0.0367183,-0.0332142
1698145291630,0.0239241,0.0212046999999999,-0.0360316
1698145291642,0.0245807,0.0120002999999999,-0.0338732999999999
1698145291658,0.0234749999999999,0.0078538,-0.0298806999999999
1698145291671,0.02569433,0.0060249999999999,-0.0309574
1698145291683,0.0230325199999999,0.00084,-0.0284939999999999
1698145291698,0.02479884,-0.0032225,-0.0304288
1698145291713,0.022564016,-0.0037627999999999,-0.0268509999999999
1698145291726,0.021871974,-0.0023405,-0.0251858
1698145291740,0.01788308,-0.0019145999999999,-0.0211863999999999
1698145291753,0.0154101,-0.0052113999999999,-0.0186602999999999
1698145291768,0.0135003599999999,-0.0123370999999999,-0.0164862
1698145291782,0.01080788,-0.0190198999999999,-0.0126796999999999
1698145291795,0.0087562799999999,-0.0248757,-0.009634
1698145291808,0.00715529,-0.0285425999999999,-0.0067110999999999
1698145291823,0.0056345,-0.0319469,-0.0038939
1698145291837,0.0048479399999999,-0.0314664,-0.0007330999999999
1698145291852,0.00394429,-0.0324676999999999,0.0009644999999999
1698145291867,0.0031346,-0.0351893999999999,0.001924
1698145291877,0.0023113,-0.0366318999999999,0.0024063
1698145291891,0.0025722999999999,-0.0414859,0.0046047999999999
1698145291905,0.0025073999999999,-0.0450014,0.0082368
1698145291920,0.0018830999999999,-0.0440601999999999,0.0107283999999999
1698145291934,0.0004247,-0.0387711,0.0118512999999999
1698145291948,1.7000000000003124e-05,-0.0294864,0.011722
1698145291962,-0.0001218,-0.0233503399999999,0.0132557999999999
1698145291977,0.0008861,-0.02138722,0.0148846
1698145291989,0.0026629999999999,-0.01801082,0.0152411
1698145292003,0.0034102,-0.01510699,0.0157406999999999
1698145292017,0.0032755,-0.01058968,0.0158183
1698145292032,0.0027534,-0.0049381599999999,0.0171220999999999
1698145292045,0.0025139999999999,-0.00037266,0.0153456
1698145292060,0.003656,0.0009659899999999,0.0144717999999999
1698145292073,0.0043716,0.00260607,0.0152303
1698145292086,0.0058188999999999,0.0023514399999999,0.0123098999999999
1698145292101,0.0074259,0.00189953,0.0109083999999999
1698145292114,0.0095770999999999,0.0017345999999999,0.0098966
1698145292130,0.0105688,0.00429322,0.0090360999999999
1698145292143,0.0112026999999999,0.00897316,0.0085065999999999
1698145292158,0.0098975,0.01173997,0.0071777
1698145292171,0.0125609,0.0153138999999999,0.0070221
1698145292184,0.0143426999999999,0.02045439,0.0085596
1698145292197,0.0156392999999999,0.0328444,0.0119442999999999
1698145292212,0.0147357,0.0452343999999999,0.0097854
1698145292226,0.0125692,0.0509899,0.0059745999999999
1698145292241,0.0111459999999999,0.0636253,0.0126292
1698145292258,0.0119135,0.0778452,0.0155948
1698145292268,0.0106765999999999,0.0725224999999999,0.0083972999999999
1698145292281,0.004738,0.0490531,0.0036123
1698145292294,-0.0011625,0.0299473,-0.0036237
1698145292308,-0.0084221999999999,0.0103290999999999,-0.0162984999999999
1698145292323,-0.016958,-0.0037918,-0.0244687999999999
1698145292338,-0.0269876999999999,-0.0066962999999999,-0.0286275
1698145292353,-0.0314715,0.0007873,-0.0256332999999999
1698145292366,-0.0331251999999999,0.0083369999999999,-0.0220908
1698145292379,-0.0322794,0.0074811,-0.0211182999999999
1698145292393,-0.0311575999999999,-0.0009972999999999,-0.0199353999999999
1698145292407,-0.02963507,-0.0091033,-0.0180891
1698145292420,-0.02742045,-0.0154887999999999,-0.0165125999999999
1698145292434,-0.0231596,-0.018207,-0.0157955
1698145292448,-0.01754157,-0.0171112999999999,-0.0135871999999999
1698145292462,-0.0118534949999999,-0.0137076999999999,-0.0103037
1698145292476,-0.0075493922,-0.0105349,-0.0072381999999999
1698145292491,-0.0069515058,-0.0126050999999999,-0.0055021
1698145292505,-0.0085798469999999,-0.0158987999999999,-0.0032310999999999
1698145292516,-0.01049788,-0.0205189,-0.0003956999999999
1698145292531,-0.01000903,-0.021619,0.0036582999999999
1698145292546,-0.0102065099999999,-0.0238435,0.0067173
1698145292561,-0.01010376,-0.0248989,0.0092880999999999
1698145292576,-0.0099416099999999,-0.0250398,0.0102085
1698145292587,-0.01020916,-0.0274261,0.0114699
1698145292602,-0.0087966599999999,-0.0296683999999999,0.0118945999999999
1698145292614,-0.0086562599999999,-0.0351659,0.013699
1698145292629,-0.0084385,-0.0345444999999999,0.0132799
1698145292646,-0.0093324999999999,-0.0335001,0.0129832999999999
1698145292658,-0.0092314,-0.0301354,0.0134747
1698145292670,-0.0087087,-0.02490723,0.0121672999999999
1698145292686,-0.0098986,-0.02540705,0.0126222
1698145292700,-0.0097093,-0.02267856,0.0112707999999999
1698145292713,-0.0093358999999999,-0.020036091,0.0109956999999999
1698145292726,-0.0088013,-0.016741215,0.0101277
1698145292739,-0.0086941,-0.0127620939999999,0.0092483999999999
1698145292754,-0.0102359999999999,-0.00746337,0.0074762999999999
1698145292768,-0.0133343999999999,-8.564000000000141e-05,0.0083311999999999
1698145292782,-0.0126545999999999,0.00880333,0.0089097
1698145292797,-0.0115387,0.01680833,0.0098377
1698145292812,-0.0104192999999999,0.02843373,0.0120563
1698145292825,-0.009857,0.0395276899999999,0.0121710999999999
1698145292837,-0.0109083999999999,0.04599347,0.0110818999999999
1698145292850,-0.0122647,0.0509074999999999,0.0108072
1698145292864,-0.0112933,0.0525922,0.0110097
1698145292879,-0.0084169,0.0459508999999999,0.0063647999999999
1698145292894,-0.0076690999999999,0.0537991999999999,0.0079552
1698145292906,-0.0069137,0.0638704,0.0105528999999999
1698145292919,-0.0010614999999999,0.0549647,0.0026082
1698145292934,0.0036648,0.0347291,-0.0003953
1698145292948,0.0100351999999999,0.0187508999999999,-0.0069112
1698145292963,0.0169549999999999,0.0031307,-0.0162587999999999
1698145292977,0.0208733,-0.0060432,-0.0182804
1698145292991,0.0244288,-0.0004424,-0.0189201999999999
1698145293004,0.0224313999999999,0.0122476,-0.0143631
1698145293018,0.0208453999999999,0.0182077999999999,-0.0135796999999999
1698145293031,0.0195991,0.0101991,-0.0156649
1698145293046,0.016164,-0.003124,-0.0176343999999999
1698145293061,0.0128491,-0.0115502,-0.0171262999999999
1698145293076,0.0095857999999999,-0.0126340999999999,-0.0154609
1698145293089,0.0072035,-0.0107901,-0.011975
1698145293103,0.0070679,-0.0128116999999999,-0.0108473
1698145293117,0.0062611999999999,-0.0168802,-0.0098914999999999
1698145293131,0.0054347099999999,-0.0211167999999999,-0.0092496999999999
1698145293143,0.0051477899999999,-0.0218341,-0.0074981
1698145293157,0.00501331,-0.0218433,-0.0063796999999999
1698145293170,0.0050660099999999,-0.0221964,-0.0044964
1698145293183,0.0043306899999999,-0.0226530999999999,-0.002159
1698145293200,0.003575,-0.0261003999999999,-5.6000000000000494e-05
1698145293213,0.0014683299999999,-0.026353,0.0013796
1698145293226,9.57700000000089e-05,-0.0225184999999999,0.0026270999999999
1698145293238,0.0002659099999999,-0.0222756,0.0054692999999999
1698145293253,0.00109549,-0.0193213,0.0076483
1698145293269,0.0021850699999999,-0.0184098999999999,0.0115747999999999
1698145293282,0.0025966699999999,-0.017617,0.0132395999999999
1698145293297,0.00260256,-0.0179459999999999,0.0116215
1698145293311,0.00211323,-0.0227091,0.0127325
1698145293324,0.0012896899999999,-0.0230452999999999,0.0124678999999999
1698145293337,0.0007405799999999,-0.0212553999999999,0.0132125
1698145293350,0.00086382,-0.01746875,0.0143646
1698145293364,0.0010437299999999,-0.0157482399999999,0.0147731999999999
1698145293378,0.0001516899999999,-0.01605943,0.0159680999999999
1698145293394,-0.0006396499999999,-0.01602141,0.0159305
1698145293407,-0.0007153999999999,-0.0155066999999999,0.0156967
1698145293422,-0.00011084,-0.01564712,0.0175992
1698145293439,0.00014386,-0.0137575854,0.0177251999999999
1698145293447,0.0008035999999999,-0.0122493946,0.0194143999999999
1698145293461,0.00125398,-0.0117294499999999,0.0219236999999999
1698145293477,0.00065064,-0.01086219,0.0240943
1698145293492,3.447000000000172e-05,-0.00927484,0.0244412
1698145293504,0.0006309799999999,-0.0070461,0.0240499999999999
1698145293517,0.00178517,-0.0040166399999999,0.0240992000000001
1698145293532,0.0038098999999999,-0.00160658,0.0258160999999998
1698145293546,0.00437711,0.0016869799999999,0.0255800999999999
1698145293560,0.0052640699999999,0.00532253,0.0234534
1698145293573,0.00559159,0.0094264599999999,0.0232055999999999
1698145293586,0.00596508,0.01398808,0.0240109
1698145293601,0.0051699,0.0169225449999999,0.0241557999999999
1698145293615,0.0033338399999999,0.019809755,0.022533
1698145293629,0.00134678,0.02344365,0.0206581
1698145293643,-8.053000000000227e-05,0.02442066,0.0159941999999999
1698145293655,-0.0014818999999999,0.0292439999999999,0.0127566
1698145293670,-0.00285186,0.03424727,0.0100258
1698145293683,-0.00706618,0.0434593,0.0083434999999999
1698145293698,-0.00799946,0.0427072999999999,-2.0800000000043006e-05
1698145293712,-0.0103808599999999,0.0384181,-0.0087075999999999
1698145293727,-0.01083875,0.0317538,-0.0183501999999999
1698145293741,-0.0088027299999999,0.0232839999999999,-0.0263387
1698145293753,-0.00992623,0.0196948,-0.0331188999999999
1698145293768,-0.0100032399999999,0.0197397999999999,-0.0389384999999999
1698145293781,-0.0102674799999999,0.0200606,-0.0397925
1698145293797,-0.01092391,0.0170528999999999,-0.0419372
1698145293811,-0.0114534999999999,0.009064,-0.0463645
1698145293824,-0.0109116999999999,0.0002745999999999,-0.045587
1698145293837,-0.0109362,-0.0039841999999999,-0.0453949999999999
1698145293852,-0.0104972999999999,-0.0034173999999999,-0.0455126
1698145293866,-0.0102887,0.0017819999999999,-0.0421637999999999
1698145293879,-0.0107183,0.0090081,-0.0376343
1698145293893,-0.0105311999999999,0.0126026,-0.0340381
1698145293906,-0.0110765999999999,0.0101438999999999,-0.0315740999999999
1698145293918,-0.0102864,0.0032968999999999,-0.0306593
1698145293934,-0.010193,-0.0037661999999999,-0.0284713999999999
1698145293948,-0.0103362999999999,-0.0087554999999999,-0.0267342999999999
1698145293963,-0.0095542,-0.0121837,-0.0234187
1698145293976,-0.0085365,-0.0134852999999999,-0.0188224
1698145293989,-0.0094897999999999,-0.0158316,-0.0172852
1698145294004,-0.0093014,-0.017813,-0.0152600999999999
1698145294018,-0.0089259999999999,-0.0188111,-0.0132522999999999
1698145294031,-0.0084682,-0.0198824999999999,-0.0117600999999999
1698145294047,-0.0088782,-0.0207053999999999,-0.0128213
1698145294060,-0.0087383999999999,-0.0201003,-0.0116597999999999
1698145294073,-0.0079381,-0.020875,-0.0098205999999999
1698145294085,-0.0067408999999999,-0.0216211,-0.006558
1698145294101,-0.0068138999999999,-0.0252613999999999,-0.0039955
1698145294114,-0.006377,-0.0261633,-0.0010655999999999
1698145294130,-0.0063732999999999,-0.0252777,0.0017274
1698145294143,-0.0063121,-0.0262769999999999,0.0039058999999999
1698145294157,-0.0067849999999999,-0.0272229999999999,0.0060064999999999
1698145294170,-0.0079906,-0.02887478,0.0077564999999999
1698145294183,-0.0083139999999999,-0.0246851399999999,0.0074623
1698145294198,-0.0102551,-0.02259598,0.008364
1698145294214,-0.0106321999999999,-0.01720148,0.0098135999999999
1698145294227,-0.0105256,-0.01405849,0.0105970999999999
1698145294240,-0.0108772999999999,-0.01287571,0.01129
1698145294254,-0.011757,-0.0121234999999999,0.0106539999999999
1698145294267,-0.0127268999999999,-0.0090062399999999,0.0098767999999999
1698145294281,-0.0133768999999999,-0.00351762,0.0096421999999999
1698145294296,-0.0128739,0.00056018,0.0093242
1698145294309,-0.0125051999999999,0.0021444,0.0096382999999999
1698145294322,-0.0122676999999999,0.0013681699999999,0.0090523
1698145294336,-0.0134394999999999,-0.0006229499999999,0.0093875999999999
1698145294350,-0.0133231,-0.0004221199999999,0.0086779
1698145294367,-0.0129953999999999,0.0010506399999999,0.0075828
1698145294378,-0.0131066999999999,0.0019543399999999,0.0072568
1698145294391,-0.013425,0.0014477,0.0057186999999999
1698145294406,-0.0155397999999999,0.0029614499999999,0.0039673
1698145294419,-0.0160727,0.0048489499999999,0.0023612
1698145294435,-0.0174328,0.00621945,0.0013849
1698145294449,-0.0186197999999999,0.00706682,0.0009799999999999
1698145294462,-0.017054,0.0073567899999999,1.0400000000021503e-05
1698145294475,-0.0157996,0.009405986,-0.0022475
1698145294490,-0.0186366999999999,0.022310964,-0.0038678
1698145294505,-0.0177015999999999,0.03780418,-0.0043062999999999
1698145294518,-0.0098388999999999,0.0338362599999999,-0.003342
1698145294531,-0.0027442,0.0155642299999999,2.5900000000023127e-05
1698145294545,0.0030089,-0.0046330199999999,0.0045457999999999
1698145294561,0.0081087999999999,-0.01590697,0.0062969999999999
1698145294574,0.0142023,-0.0181881099999999,0.0029015
1698145294588,0.0155927,-0.01370305,0.001008
1698145294602,0.0162647999999999,-0.0031809,-0.0011692999999999
1698145294615,0.0136367,0.00987148,-0.0026339
1698145294630,0.0140093999999999,0.0221520199999999,-0.0041728999999999
1698145294644,0.014578,0.02662015,-0.0047515
1698145294658,0.0154175999999999,0.0252310999999999,-0.0059508999999999
1698145294670,0.0147677,0.0161646,-0.0064045
1698145294684,0.0132811999999999,0.005359,-0.0063836999999999
1698145294699,0.0092174999999999,-0.0022313999999999,-0.0044286
1698145294713,0.0059799999999999,-0.0049999,-0.0042329999999999
1698145294725,0.0033397,-0.0064719,-0.0070289
1698145294740,0.0008937999999999,-0.0076804,-0.0095695
1698145294755,-0.0022233,-0.0103598,-0.0105337999999999
1698145294769,-0.0049842999999999,-0.0123954999999999,-0.0093646
1698145294783,-0.0075386,-0.0147617599999999,-0.0075959999999999
1698145294797,-0.0098769999999999,-0.01724114,-0.0066489
1698145294810,-0.0114884,-0.01976152,-0.0061450999999999
1698145294823,-0.0107507,-0.02051091,-0.0065681999999999
1698145294838,-0.0099231999999999,-0.02035093,-0.0083827
1698145294851,-0.0102632,-0.019316824,-0.0099184999999999
1698145294865,-0.0096074,-0.015690836,-0.0084061
1698145294880,-0.0106684,-0.01428964,-0.0057062999999999
1698145294895,-0.0113233999999999,-0.0132405599999999,-0.0027866
1698145294907,-0.0101508999999999,-0.01058514,-0.0009711
1698145294921,-0.0102851999999999,-0.00949404,0.0003885
1698145294934,-0.0097255,-0.0074853299999999,0.0003558999999999
1698145294948,-0.0092592999999999,-0.00502732,0.0017249
1698145294963,-0.0097874,-0.0034209999999999,0.0031597999999999
1698145294977,-0.0107353999999999,-0.00257041,0.0043711
1698145294999,-0.0125359,-0.0008697,0.0052216999999999
1698145295019,-0.0237637,0.0019195899999999,0.0099413999999999
1698145295029,-0.0082679999999999,0.00161508,0.0037055
1698145295043,-0.0100523999999999,0.00241159,0.0049739
1698145295057,-0.0113296999999999,0.0022118899999999,0.0056952
1698145295071,-0.0117834,0.0011882599999999,0.0059586
1698145295084,-0.0102013,-0.0001679799999999,0.0042748999999999
1698145295099,-0.0063415,-0.00020101,0.0005761999999999
1698145295114,-0.0031343999999999,0.00093932,-0.0043179
1698145295128,-0.0027452,0.0020779799999999,-0.0070485999999999
1698145295142,-0.0041883,0.00182582,-0.0046248
1698145295155,-0.0053097999999999,-0.0003717899999999,1.7999999999990246e-05
1698145295169,-0.0039356,-0.00290266,0.0017517
1698145295183,-0.0034398999999999,-3.3550000000007185e-05,0.0003743999999999
1698145295198,-0.0077033,0.01851665,-0.0033117
1698145295213,-0.0080405999999999,0.03836463,-0.0045557999999999
1698145295225,-0.0041124,0.03851124,-0.002692
1698145295241,-0.0017007999999999,0.01899452,0.000171
1698145295254,-0.0020685,0.01286653,-0.0007989
1698145295267,0.0032305999999999,0.0105391599999999,-0.0048744
1698145295281,0.0078886,0.01582366,-0.0097315999999999
1698145295295,0.0121371,0.01785172,-0.0131439
1698145295309,0.0144234999999999,0.0135554099999999,-0.0138131999999999
1698145295322,0.0165353,0.0148406,-0.0174649
1698145295337,0.0189964999999999,0.0181028,-0.0223956999999999
1698145295350,0.017423,0.0149489999999999,-0.0219507
1698145295364,0.0136479999999999,0.0088264,-0.0191905
1698145295378,0.0113702999999999,-0.0008674,-0.01606617
1698145295396,0.0111421999999999,-0.0093551999999999,-0.0147267099999999
1698145295407,0.0119856999999999,-0.0168489,-0.01540027
1698145295420,0.0096988,-0.0178881,-0.0143910699999999
1698145295434,0.0087445,-0.0189501,-0.01445437
1698145295448,0.0062758,-0.01857876,-0.01281681
1698145295462,0.0046836999999999,-0.0193782699999999,-0.012145374
1698145295476,0.0034041,-0.0198821,-0.0126049859999999
1698145295489,0.0023693999999999,-0.0203653,-0.0129485
1698145295503,-0.0004828999999999,-0.0200490249999999,-0.01352963
1698145295516,-0.0021695999999999,-0.015297775,-0.01321824
1698145295531,-0.0033636,-0.01162197,-0.01457114
1698145295545,-0.0037086,-0.00890459,-0.0145804299999999
1698145295558,-0.0032311999999999,-0.0106834599999999,-0.01486702
1698145295572,-0.0026348999999999,-0.01200917,-0.01380528
1698145295587,-0.0022375999999999,-0.01209221,-0.0146662999999999
1698145295602,-0.002457,-0.0088801099999999,-0.0158278999999999
1698145295616,-0.0018407999999999,-0.00525602,-0.0153748999999999
1698145295630,-0.001411,-0.00648659,-0.0152981
1698145295642,0.0006531,-0.00998061,-0.0146072
1698145295656,0.0016815999999999,-0.0114948399999999,-0.0134614999999999
1698145295670,0.0020094,-0.0083736,-0.0162894
1698145295685,0.0017091,-0.0020608999999999,-0.0178334
1698145295698,0.0024843999999999,0.0004451999999999,-0.0161386
1698145295711,0.0024499999999999,-0.0013447999999999,-0.0148472999999999
1698145295726,0.0026619000000001,-0.002179,-0.0152956
1698145295740,0.0030921999999999,-0.0004471,-0.0164232999999999
1698145295753,0.0031066999999999,0.0019645999999999,-0.0161940999999999
1698145295768,0.0028884,0.0032486,-0.0160644
1698145295783,0.0011328,0.0045914999999999,-0.0160711
1698145295796,0.0009455,0.0065845999999999,-0.0183653999999999
1698145295809,0.0005830999999999,0.0061676,-0.0174996
1698145295824,0.0001689,0.0071458799999999,-0.0188483999999999
1698145295837,-0.0003906,0.00618463,-0.0177957
1698145295851,2.5700000000017376e-05,0.0061722599999999,-0.0145466999999999
1698145295863,-7.420000000002425e-05,0.00679428,-0.0139279
1698145295877,-0.0003729999999999,0.0103809399999999,-0.0125994999999999
1698145295893,-0.0071015,0.03350395,-0.0155120999999999
1698145295906,-0.0058374999999999,0.04898637,-0.0134508
1698145295920,-0.0014711,0.03693912,-0.0079296999999999
1698145295933,-0.0041004,0.025267,-0.0042004999999999
1698145295947,0.0005227,0.0079173999999999,0.0024202999999999
1698145295962,0.0084138999999999,-0.0129513799999999,0.0086909
1698145295976,0.0111869,-0.02671909,0.011581
1698145295990,0.010066,-0.0232366599999999,0.0094531999999999
1698145296005,0.0121549999999999,-0.00445565,0.0071686
1698145296016,0.0138667,0.01684712,0.005249
1698145296030,0.0130756,0.02612716,0.0049866
1698145296045,0.0123687999999999,0.02216738,0.0058154999999999
1698145296060,0.0122689999999999,0.00981875,0.0084185999999999
1698145296074,0.0147836,0.0035463999999999,0.0100706999999999
1698145296086,0.0153138,0.00600144,0.0093931999999999
1698145296102,0.0164558,0.0097289999999999,0.0099553
1698145296115,0.0136338999999999,0.0062881,0.009671
1698145296129,0.0130131,-0.0003813,0.0099209
1698145296143,0.0120063999999999,-0.0072809999999999,0.0083135999999999
1698145296158,0.012699,-0.0118566999999999,0.0058619999999999
1698145296172,0.011492,-0.01375355,0.0030715
1698145296184,0.0082647999999999,-0.0133632399999999,0.0014598
1698145296199,0.0067707,-0.0155416,0.0009157
1698145296213,0.0053807,-0.0173976,0.0001321999999999
1698145296227,0.0051394999999999,-0.01532075,-0.0002206999999999
1698145296240,0.0064104,-0.01135615,-0.0011068
1698145296255,0.0057520999999999,-0.008209562,-0.001097
1698145296268,0.0052878,-0.00658466,0.0006283
1698145296281,0.0040407,-0.005179243,0.0028160999999999
1698145296295,0.0036348999999999,-0.0013293519999999,0.0049212
1698145296309,0.0034895999999999,0.0006471569999999,0.0059599999999999
1698145296322,0.0030940999999999,0.001537436,0.0062922
1698145296337,0.0015179,0.0007819929999999,0.0060031999999999
1698145296350,0.0005292,-8.704900000000007e-05,0.0056900999999999
1698145296364,-0.0005955999999999,0.000100848,0.0035262
1698145296378,-0.0009886,-0.0002867099999999,0.0022206
1698145296390,-0.0014048,-0.003449048,0.0020801999999999
1698145296405,-0.0024384,-0.0066028799999999,0.0015925999999999
1698145296421,-0.0032022999999999,-0.00737697,0.0010228999999999
1698145296434,-0.0033086999999999,-0.00712515,-0.0001203
1698145296447,-0.0041635999999999,-0.0055532599999999,-0.0017579999999999
1698145296461,-0.0051096999999999,-0.00296535,-0.0034871
1698145296476,-0.0050570999999999,-0.00131966,-0.0040872999999999
1698145296491,-0.0055175,-0.0001837499999999,-0.0038114
1698145296503,-0.007023,0.00063188,-0.0037915
1698145296515,-0.0070157,0.0001914499999999,-0.0030912
1698145296530,-0.0080219999999999,-0.0002876199999999,-0.0030141999999999
1698145296544,-0.0081106,-0.00116702,-0.0018582
1698145296560,-0.0073316999999999,-0.0017275599999999,-0.0007249999999999
1698145296574,-0.0070714,-0.00229097,-0.0003081999999999
1698145296587,-0.0064427,2.053000000000471e-05,-0.0009699
1698145296601,-0.0067609,0.0096487499999999,-0.0052998
1698145296615,-0.0068315999999999,0.02203348,-0.0087778
1698145296628,-0.0061168999999999,0.02600897,-0.0084499999999999
1698145296643,-0.0043385,0.01184303,-0.0038148
1698145296657,-0.003237,0.0076023399999999,-0.0046145
1698145296670,-0.0012347999999999,0.01417963,-0.0050273999999999
1698145296684,0.001699,0.0152566499999999,-0.00253
1698145296698,0.0028027,0.00912557,-0.0001693999999999
1698145296712,0.0051850999999999,0.0047229899999999,0.0028552
1698145296724,0.0076057,0.00394917,0.0048595999999999
1698145296738,0.0100866999999999,0.0060708599999999,0.004945
1698145296754,0.0104925,0.0069179,0.0048575
1698145296768,0.0112124,0.00287452,0.0059378999999999
1698145296780,0.0127798,-0.00389804,0.0076699
1698145296795,0.0150714999999999,-0.0094770799999999,0.0087452999999999
1698145296810,0.017793,-0.01199669,0.0095038
1698145296823,0.0181743,-0.0132568299999999,0.0094539
1698145296836,0.0187829999999999,-0.0142552199999999,0.0096336
1698145296849,0.0192412,-0.0128581099999999,0.0093216999999999
1698145296865,0.0206138999999999,-0.00780912,0.0096106999999999
1698145296880,0.020645,-0.0024070899999999,0.0096244
1698145296893,0.0190698999999999,0.0002000599999999,0.0100760999999999
1698145296906,0.0181865999999999,0.0004002799999999,0.0103593
1698145296920,0.0158159999999999,0.0008374699999999,0.0106397999999999
1698145296934,0.0160003,0.00215476,0.0124759
1698145296948,0.013936,0.0034135199999999,0.0123599
1698145296960,0.0129379,0.00361623,0.0125153999999999
1698145296975,0.0116803,0.0039245299999999,0.0123481
1698145296990,0.0114464999999999,0.00534691,0.0121705
1698145297004,0.0120187999999999,0.0047703399999999,0.0123226
1698145297017,0.0109727,0.00253844,0.0117348999999999
1698145297030,0.0106006999999999,-0.00047685,0.010826
1698145297044,0.0097912,-0.00264413,0.0095048
1698145297059,0.0097233999999999,-0.0052536899999999,0.0080128999999999
1698145297073,0.0090646,-0.00633399,0.0054156999999999
1698145297087,0.0080718999999999,-0.0065250199999999,0.0030571
1698145297100,0.007866,-0.00726677,0.0015095999999999
1698145297115,0.0072567,-0.0068175999999999,0.0001536
1698145297129,0.0068404999999999,-0.004575132,-0.0018142
1698145297142,0.0060177,-0.000820833,-0.0023418999999999
1698145297155,0.0055359999999999,-0.000112094,-0.0026656999999999
1698145297170,0.0051263999999999,-0.0013693109999999,-0.0017631
1698145297183,0.0052618,-0.002100495,-0.0013845999999999
1698145297198,0.0050306499999999,-0.0008907989999999,-0.0004351999999999
1698145297212,0.0051809699999999,0.001069744,0.0004210999999999
1698145297226,0.0040265599999999,0.0021183749999999,0.0006037
1698145297240,0.00387972,0.0025778619999999,0.0017012999999999
1698145297253,0.0037757,0.001303513,0.0019805999999999
1698145297267,0.0043550599999999,6.38299999999991e-05,0.0028548999999999
1698145297281,0.0045478,-0.0009502499999999,0.0027311
1698145297296,0.0049879499999999,-0.0014257179999999,0.0031909999999999
1698145297310,0.00519662,-0.002336644,0.0031323
1698145297324,0.0056801599999999,-0.0027742569999999,0.0033106999999999
1698145297337,0.0072094099999999,-0.0025474283,0.0034557999999999
1698145297350,0.00733755,-0.0021171707,0.0027844
1698145297364,0.0076111199999999,-0.00253735,0.0030436999999999
1698145297379,0.0071808899999999,-0.003813028,0.0022135999999999
1698145297392,0.00731837,-0.0036808939999999,0.0012619999999999
1698145297406,0.0075177299999999,-0.0008047799999999,0.0004264999999999
1698145297420,0.0069202,0.0005354399999999,0.0005361
1698145297434,0.006449659,-0.0003491899999999,0.0006924999999999
1698145297447,0.00639425,-0.00184194,0.0014882999999999
1698145297461,0.0054237009999999,-0.0029957,0.0020382999999999
1698145297475,0.00508812,-0.00259353,0.0021364999999999
1698145297489,0.0042799099999999,-0.0020201,0.001389
1698145297505,0.0035007,-0.00113481,-8.80000000000325e-06
1698145297519,0.00301299,-0.0002459499999999,-0.0014800999999999
1698145297533,0.0024198799999999,-0.00067504,-0.0023055
1698145297545,0.0024519,-0.0015922899999999,-0.0025194999999999
1698145297557,0.0024944299999999,-0.0018895199999999,-0.0019898
1698145297572,0.00308723,-0.00056421,-0.00207
1698145297589,0.0025492299999999,-0.0007077199999999,-0.0022751999999999
1698145297602,0.0020021399999999,-0.0010083999999999,-0.0031372
1698145297615,0.0013430899999999,0.0001119699999999,-0.0037477
1698145297628,0.00140723,0.0016953699999999,-0.0035927
1698145297643,0.0010911099999999,0.00192296,-0.0029389999999999
1698145297655,0.00094227,0.00114825,-0.0022047
1698145297669,0.0010136799999999,0.00065485,-0.0013671999999999
1698145297683,0.00072757,0.0006353699999999,-0.0008091
1698145297698,0.0011896599999999,0.0009417399999999,-0.0004002999999999
1698145297712,0.00143357,0.00129164,-0.0008564
1698145297726,0.0016842799999999,0.0009432499999999,-0.0014995999999999
1698145297742,0.00123095,-7.000000000000062e-06,-0.0025811
1698145297753,0.0010633,-0.00074249,-0.0028866999999999
1698145297766,0.00094794,-0.0009810399999999,-0.0035127
1698145297780,0.0017201899999999,-0.0011715199999999,-0.0037544999999999
1698145297796,0.00196459,-0.00052434,-0.0044647
1698145297809,0.00275996,-0.0001523499999999,-0.0053549999999999
1698145297823,0.0027135299999999,0.0008922799999999,-0.0070271
1698145297836,0.00283419,0.00089412,-0.0083988999999999
1698145297851,0.00295784,-0.00071379,-0.010109
1698145297865,0.0031111999999999,-0.0057947999999999,-0.0110648999999999
1698145297879,0.00262376,-0.0104835099999999,-0.0105302999999999
1698145297892,0.0014663699999999,-0.01354816,-0.0116419
1698145297904,0.00067079,-0.00922983,-0.0125657999999999
1698145297919,-0.0001649599999999,-0.00146132,-0.013773
1698145297934,-0.00037344,0.0039649,-0.0134542
1698145297948,-0.0014213299999999,0.0049965899999999,-0.0136029999999999
1698145297960,-0.00235317,0.00454062,-0.0100935999999999
1698145297975,-0.00346925,0.00444121,-0.010153
1698145297988,-0.0040212099999999,0.0049206499999999,-0.0081089999999999
1698145298001,-0.0051536699999999,0.00585722,-0.0066045
1698145298015,-0.00555498,0.0072816199999999,-0.0061534
1698145298031,-0.0059837699999999,0.00724559,-0.0053803999999999
1698145298045,-0.0054928299999999,0.0058763899999999,-0.0039266
1698145298060,-0.00489725,0.00256043,-0.0024404
1698145298073,-0.0053599699999999,-0.0002980199999999,-0.0011516
1698145298085,-0.0052267299999999,-0.00127536,-0.0004776999999999
1698145298100,-0.00458977,-4.478999999999941e-05,0.0007089
1698145298113,-0.0042301899999999,0.00151908,0.0023234999999999
1698145298128,-0.00432377,0.0013357349999999,0.0023633
1698145298142,-0.00494034,0.001750463,0.0018317999999999
1698145298155,-0.0047581799999999,0.0028996199999999,0.0012554999999999
1698145298169,-0.00456983,0.0042856479,0.0001025
1698145298182,-0.00351069,0.0057150731,-0.0011229999999999
1698145298197,-0.001531441,0.008179161,-0.0016127
1698145298211,0.000688278,0.00818182,-0.0013892999999999
1698145298225,0.0023718509999999,0.0091417799999999,-0.0019988999999999
1698145298239,0.003088743,0.00965733,-0.0027998
1698145298255,0.0034010189999999,0.00922561,-0.0032506999999999
1698145298269,0.00362046,0.0075840499999999,-0.0037833999999999
1698145298281,0.0038294999999999,0.00553699,-0.0045906
1698145298295,0.00448107,0.00468582,-0.0053881
1698145298309,0.00521481,0.0049506399999999,-0.0060318
1698145298321,0.00557033,0.00474544,-0.0067550999999999
1698145298336,0.00537609,0.00527486,-0.007029
1698145298350,0.00480275,0.0042612499999999,-0.0063254999999999
1698145298366,0.0042955099999999,0.00259397,-0.0064921
1698145298378,0.00452149,0.0011830199999999,-0.0066356
1698145298392,0.00442112,0.00112809,-0.0070575999999999
1698145298404,0.0046100899999999,0.0012885499999999,-0.0075596
1698145298418,0.0047566,0.0026124999999999,-0.0083321
1698145298433,0.00486648,0.00350193,-0.0091542
1698145298447,0.0055154799999999,0.00606923,-0.0092318
1698145298461,0.00685107,0.0105307999999999,-0.0105578
1698145298475,0.0071706799999999,0.014531,-0.0109446999999999
1698145298489,0.00677255,0.0168583999999999,-0.0104553
1698145298503,0.0060992299999999,0.0158215,-0.0093546999999999
1698145298517,0.0060272,0.0135354999999999,-0.0079222999999999
1698145298531,0.0074976999999999,0.0168619,-0.0067992
1698145298544,0.0074715999999999,0.0224696,-0.0065978999999999
1698145298558,0.005528,0.0259442,-0.005444
1698145298573,0.0021844,0.0230159999999999,-0.0026962
1698145298587,-0.0007874999999999,0.0170234,0.00126
1698145298602,-0.0009616,0.0120159999999999,0.0051141999999999
1698145298614,0.0003344999999999,0.009834,0.0085335
1698145298628,0.0001806,0.0086854,0.0110399999999999
1698145298643,-0.0008125999999999,0.0076643,0.0138035999999999
1698145298657,-0.0023523,0.0086528999999999,0.0136922
1698145298671,-0.0038519999999999,0.0131505,0.0135154
1698145298685,-0.0046681999999999,0.0154648,0.0111603999999999
1698145298698,-0.0053046999999999,0.015957,0.0082474
1698145298712,-0.0056406,0.0151159,0.0076447
1698145298726,-0.0055320999999999,0.0111959999999999,0.0067599999999999
1698145298739,-0.0054560999999999,0.0080635,0.0062225
1698145298754,-0.0046189,0.0065896,0.0071156
1698145298766,-0.0045987799999999,0.0069709,0.008718
1698145298780,-0.0048631999999999,0.0040053999999999,0.0111294999999999
1698145298795,-0.00520004,-0.0009507,0.0136696
1698145298810,-0.00427305,-0.0071486,0.015582
1698145298822,-0.0028883199999999,-0.0098988999999999,0.0169189999999999
1698145298835,-0.0024022499999999,-0.0110004999999999,0.0174352
1698145298850,-0.00338534,-0.0147465999999999,0.0186837999999999
1698145298863,-0.00440864,-0.0199116,0.0163428999999999
1698145298877,-0.0047435699999999,-0.0234916,0.0128465999999999
1698145298893,-0.00440259,-0.0264725,0.0100697
1698145298906,-0.0047608499999999,-0.0289568,0.007664
1698145298919,-0.0039320399999999,-0.0262257999999999,0.0042501
1698145298933,-0.0035465,-0.027082,0.0027555999999999
1698145298947,-0.00332099,-0.0281051999999999,0.0017793
1698145298961,-0.0034929199999999,-0.0257354999999999,0.0005756999999999
1698145298976,-0.00321695,-0.0258181999999999,-0.0002088999999999
1698145298997,-0.00335502,-0.022909,-0.0009056
1698145299003,-0.0048469099999999,-0.0229762,-0.0016974
1698145299015,-0.00460307,-0.01752043,-0.0022536999999999
1698145299029,-0.0062021799999999,-0.0161916,-0.0035465999999999
1698145299042,-0.005863876,-0.0114420999999999,-0.0043366999999999
1698145299056,-0.005544877,-0.0088227799999999,-0.0032308
1698145299073,-0.005915509,-0.00899244,-0.0019691
1698145299086,-0.007185318,-0.01068129,-0.0011029999999999
1698145299099,-0.00813056,-0.00967954,-0.0003534
1698145299113,-0.00921337,-0.0063568799999999,-0.0016944
1698145299127,-0.0099490299999999,-0.00161145,-0.0039507
1698145299141,-0.00950423,0.00204908,-0.0050743999999999
1698145299154,-0.0101474199999999,0.0020655399999999,-0.0060835
1698145299168,-0.0110194,-0.0018625599999999,-0.0069107999999999
1698145299183,-0.0108811799999999,-0.005078688,-0.0064831
1698145299197,-0.0112179099999999,-0.006969705,-0.0058920999999999
1698145299211,-0.01088641,-0.005166878,-0.0061625
1698145299226,-0.0111982999999999,-0.00334314,-0.0071109
1698145299237,-0.0100369,-0.0010411679999999,-0.0075394999999999
1698145299251,-0.0100860999999999,0.0002636399999999,-0.0090761999999999
1698145299266,-0.0086814,0.001910653,-0.0084697
1698145299280,-0.0093862,0.0032782949999999,-0.0084857999999999
1698145299295,-0.0101699999999999,0.006936691,-0.0079165999999999
1698145299310,-0.0110051,0.0120236899999999,-0.0082848
1698145299323,-0.0099544,0.01455945,-0.0069161999999999
1698145299336,-0.0103996999999999,0.01536263,-0.0063239999999999
1698145299350,-0.009723,0.0131109499999999,-0.0047071
1698145299363,-0.0093050999999999,0.0152053399999999,-0.0045471999999999
1698145299377,-0.0083875,0.0229793,-0.0065985
1698145299392,-0.0101024999999999,0.03941899,-0.0100499
1698145299405,-0.0100484,0.0479493,-0.0099386999999999
1698145299419,-0.0073586999999999,0.0454924999999999,-0.0084412
1698145299433,-0.0043946999999999,0.0423131,-0.0067344999999999
1698145299446,-0.0014019,0.0364065,-0.0032896
1698145299463,0.0001079999999999,0.0394235,-0.001601
1698145299475,0.0010342999999999,0.0364540999999999,0.0017184
1698145299489,0.0014329,0.0264191999999999,0.00519
1698145299503,0.0027673999999999,0.0160028999999999,0.0095934999999999
1698145299517,0.0053433,0.0055537999999999,0.0135158999999999
1698145299531,0.0084013,-0.0026992999999999,0.0168227
1698145299544,0.0093248999999999,-0.0070561,0.0167515
1698145299558,0.0110834999999999,-0.0072611,0.0180462999999999
1698145299571,0.0123302999999999,-0.0032397999999999,0.0186391
1698145299586,0.0122123,0.0005490999999999,0.0173474
1698145299599,0.0135221,7.299999999998974e-05,0.0175574
1698145299613,0.0129518999999999,-0.0042426999999999,0.0160353999999999
1698145299627,0.0135726999999999,-0.0081026,0.0148133
1698145299640,0.0122357,-0.0091899999999999,0.0118418
1698145299654,0.0131975,-0.0110731,0.0111502999999999
1698145299669,0.0133871999999999,-0.0093919,0.0094024
1698145299683,0.0132868,-0.0056128999999999,0.0085247999999999
1698145299698,0.01226683,-0.0055974,0.0077929
1698145299711,0.0115989599999999,-0.0085601,0.0075025999999999
1698145299726,0.00987836,-0.0107558999999999,0.0059391999999999
1698145299739,0.00888636,-0.0133641999999999,0.0051563
1698145299752,0.0081742699999999,-0.0154955999999999,0.0047104
1698145299766,0.00766059,-0.0173552,0.0041064
1698145299780,0.0074408299999999,-0.0187471999999999,0.0040794
1698145299794,0.00637159,-0.0188528,0.0045594999999999
1698145299808,0.00519172,-0.0155047,0.0042465999999999
1698145299822,0.0037717699999999,-0.0134758,0.0033935999999999
1698145299835,0.00269393,-0.0131788999999999,0.0025552
1698145299849,0.00145104,-0.0136803,0.0014502999999999
1698145299863,0.00115227,-0.0146009,0.0005309
1698145299877,0.0010730599999999,-0.0156919,-0.0012018999999999
1698145299893,0.00148933,-0.0153412,-0.0034472
1698145299907,0.002048901,-0.0147679999999999,-0.0054423
1698145299921,0.002350995,-0.0145746,-0.0070606999999999
1698145299936,0.0025515519999999,-0.0167128999999999,-0.0086019
1698145299948,0.002031405,-0.01855805,-0.0099432999999999
1698145299961,0.0022056566,-0.01907889,-0.0106565999999999
1698145299974,0.0019467394,-0.0157133399999999,-0.0111607
1698145299988,0.0019862919999999,-0.01135274,-0.0117749999999999
1698145300003,0.002574628,-0.00906752,-0.0126806
1698145300017,0.002373061,-0.0090732499999999,-0.0127031999999999
1698145300030,0.0021691899999999,-0.01079996,-0.0123422
1698145300043,0.00308634,-0.011889697,-0.0128909999999999
1698145300057,0.00334848,-0.009654264,-0.0121354999999999
1698145300071,0.0036320599999999,-0.0057212989999999,-0.0119425
1698145300085,0.00384175,-0.00256649,-0.0107152999999999
1698145300098,0.00333199,-0.0024556399999999,-0.0101197
1698145300112,0.00289385,-0.00353903,-0.0088007999999999
1698145300127,0.00169735,-0.0020765899999999,-0.0064748
1698145300141,0.0017655799999999,0.00277498,-0.0055294
1698145300155,0.00231139,0.00790514,-0.0046170999999999
1698145300170,0.00287019,0.0102159023,-0.0048954999999999
1698145300183,0.0026441299999999,0.0063193817,-0.0042844
1698145300196,0.00285843,0.000811077,-0.0032940999999999
1698145300210,0.0039114599999999,-0.0026448,-0.0028437
1698145300225,0.00604077,-0.002084851,-0.0024972
1698145300238,0.0070809,0.000862101,-0.0028303
1698145300253,0.00555013,0.002635656,-0.0030239999999999
1698145300266,0.0050653499999999,0.00322554,-0.0034711
1698145300279,0.0046162699999999,0.0022746729999999,-0.0039339999999999
1698145300293,0.00540807,0.00186212,-0.0041771999999999
1698145300308,0.00583887,0.00334637,-0.0053026999999999
1698145300322,0.0056750599999999,0.005492,-0.005101
1698145300336,0.0053783,0.00965984,-0.0056627
1698145300350,0.0052058499999999,0.01707723,-0.0078100999999999
1698145300364,0.0060236,0.02554743,-0.0089654
1698145300377,0.0063551999999999,0.0302963699999999,-0.0080128999999999
1698145300391,0.0060482,0.0340853,-0.0069764999999999
1698145300405,0.0044529,0.0453798,-0.0077482999999999
1698145300417,0.0022542999999999,0.0529698999999999,-0.0062889999999999
1698145300433,0.0005689,0.0648980999999999,-0.0053916999999999
1698145300445,-0.0005042,0.0558159,-0.0013304
1698145300460,-0.0014197999999999,0.0421790999999999,0.0040421999999999
1698145300473,-0.0021595,0.031624,0.0099851999999999
1698145300487,-0.0023989999999999,0.0218992999999999,0.0151968
1698145300500,-0.0034587,0.0144756,0.0186926
1698145300515,-0.0052572,0.0062252999999999,0.0229755999999999
1698145300530,-0.0078415999999999,-0.0004562,0.0233468
1698145300543,-0.00957216,-0.0029460999999999,0.0206456
1698145300560,-0.0109363499999999,-0.0018385,0.0189548999999999
1698145300571,-0.0115603799999999,-0.0013712,0.0186289
1698145300584,-0.0109556299999999,-0.0036729999999999,0.0176037
1698145300600,-0.01114327,-0.0060262999999999,0.0166969999999999
1698145300613,-0.0125762,-0.0068774,0.0164624
1698145300628,-0.01302756,-0.0065697,0.0147453
1698145300640,-0.01292455,-0.0058130999999999,0.0129170999999999
1698145300655,-0.011588408,-0.0046663,0.011075
1698145300669,-0.010127492,-0.0052116999999999,0.0094428
1698145300683,-0.00816005,-0.0070516999999999,0.0077776999999999
1698145300697,-0.0069919499999999,-0.0115847,0.0062695999999999
1698145300710,-0.0059616,-0.015977,0.0045601
1698145300724,-0.00505325,-0.0226421,0.0034983
1698145300737,-0.0040029899999999,-0.0260783,0.0016858999999999
1698145300751,-0.0035056799999999,-0.0292892,0.0001837
1698145300766,-0.00333728,-0.0322197,-0.0017907
1698145300779,-0.00288443,-0.0306693999999999,-0.0035333999999999
1698145300795,-0.0028614199999999,-0.0293146,-0.0047261
1698145300807,-0.00323041,-0.0293660999999999,-0.0059202999999999
1698145300820,-0.0031596899999999,-0.0276757,-0.0065766
1698145300835,-0.00336277,-0.0276203999999999,-0.0077324
1698145300850,-0.0045577899999999,-0.028168,-0.0097821999999999
1698145300864,-0.00429892,-0.02620583,-0.0111221999999999
1698145300877,-0.0035052599999999,-0.02226185,-0.0109477
1698145300891,-0.0033591099999999,-0.0218249999999999,-0.0121003
1698145300904,-0.0029315899999999,-0.0199794,-0.0126993999999999
1698145300919,-0.00389878,-0.016317196,-0.0131544
1698145300933,-0.00502732,-0.0128591389999999,-0.0145027999999999
1698145300946,-0.0057582699999999,-0.009606655,-0.0149896
1698145300961,-0.0065616299999999,-0.0085140899999999,-0.0167560999999999
1698145300976,-0.0058981099999999,-0.00639649,-0.0172509999999999
1698145300989,-0.0046064999999999,-0.0053395499999999,-0.0165482
1698145301002,-0.0037622,-0.00338457,-0.0159033
1698145301015,-0.002678,-0.0019899799999999,-0.0141648999999999
1698145301030,-0.0035455999999999,-0.00067238,-0.0149514
1698145301044,-0.0041566999999999,1.8089999999998385e-05,-0.0138617
1698145301058,-0.0043411,0.0009070399999999,-0.0128215999999999
1698145301072,-0.0039966999999999,0.0035184899999999,-0.0135996999999999
1698145301085,-0.0028363,0.00675859,-0.0129699999999999
1698145301099,-0.0024173999999999,0.00888658,-0.0126492
1698145301113,-0.0024442,0.0106073,-0.0117454
1698145301127,-0.003615,0.01268638,-0.0112889999999999
1698145301142,-0.0044888999999999,0.01577322,-0.0109539999999999
1698145301155,-0.0036522999999999,0.0153270399999999,-0.008929
1698145301168,-0.0037261,0.01582469,-0.0092297999999999
1698145301185,-0.0029801999999999,0.0141363399999999,-0.0075521
1698145301197,-0.0040688,0.0153468599999999,-0.0064248999999999
1698145301211,-0.0043902999999999,0.01343872,-0.003728
1698145301224,-0.0047969,0.01990009,-0.0051852999999999
1698145301238,-0.0048940999999999,0.0356682999999999,-0.0077460999999999
1698145301250,-0.0059054,0.0542473,-0.0085798
1698145301265,-0.0061867999999999,0.0687159,-0.0092693999999999
1698145301280,-0.0042427,0.0666447,-0.0062358
1698145301295,-0.0018924999999999,0.0563858999999999,-0.0006802999999999
1698145301307,0.0012424,0.0422968,0.0044613999999999
1698145301321,0.0032085,0.0301029999999999,0.0096336999999999
1698145301335,0.0050501,0.0198452,0.016365
1698145301349,0.0080398999999999,0.0081844999999999,0.0224947999999999
1698145301363,0.0102939999999999,0.0006526,0.0244111
1698145301378,0.0146604999999999,-0.0039431,0.031555
1698145301391,0.0145345,-0.0050311999999999,0.0285065999999999
1698145301404,0.016642,-0.0044529,0.0293808
1698145301418,0.0194823999999999,-0.0027389999999999,0.0291310999999999
1698145301432,0.02215203,-0.0031454999999999,0.0297559
1698145301446,0.02138463,-0.0048800999999999,0.0272664
1698145301460,0.0206653799999999,-0.0060739,0.0263219
1698145301474,0.01727707,-0.0053081999999999,0.0241473999999999
1698145301494,0.0154625629999999,-0.0046231999999999,0.0228484999999999
1698145301504,0.012007271,-0.0049647,0.0178673
1698145301515,0.008465526,-0.0059014,0.0123886
1698145301530,0.00793432,-0.0085554999999999,0.0107659999999999
1698145301544,0.0056856199999999,-0.0117995999999999,0.0072118
1698145301558,0.0044335299999999,-0.0153449999999999,0.0038482999999999
1698145301574,0.00500551,-0.0169844,0.0011724999999999
1698145301587,0.0063653699999999,-0.017259,-0.0001449
1698145301600,0.00589842,-0.0153419999999999,-0.0014482
1698145301614,0.00471644,-0.0164026,-0.0029584999999999
1698145301628,0.0037798599999999,-0.0226199999999999,-0.0048576
1698145301641,0.003495,-0.0244000999999999,-0.007031
1698145301654,0.00333635,-0.0281997999999999,-0.0081024999999999
1698145301668,0.00310731,-0.0322995,-0.0094647999999999
1698145301682,0.0022213299999999,-0.0333100999999999,-0.011269
1698145301698,0.00227932,-0.0356028,-0.0131698
1698145301711,0.00197189,-0.0350648999999999,-0.0153148999999999
1698145301726,0.0017553099999999,-0.03101329,-0.0154780999999999
1698145301739,0.0019646099999999,-0.0288460799999999,-0.0170760999999999
1698145301755,0.00235862,-0.02551495,-0.0177181
1698145301764,0.0020117399999999,-0.0187826499999999,-0.0155414
1698145301777,0.00279999,-0.018141973,-0.0170505999999999
1698145301793,0.0043018799999999,-0.016191247,-0.0183732999999999
1698145301808,0.0043091,-0.0119220399999999,-0.0164905
1698145301821,0.0041300299999999,-0.00926743,-0.0142461999999999
1698145301834,0.00388348,-0.0077389699999999,-0.0130900999999999
1698145301847,0.0049176999999999,-0.00659969,-0.0147374
1698145301862,0.0054323,-0.00305044,-0.0134741999999999
1698145301875,0.0053431,0.00153464,-0.0128975
1698145301890,0.0052383999999999,0.0049076299999999,-0.0110328
1698145301904,0.0047067999999999,0.0047576,-0.0100877999999999
1698145301918,0.0038622,0.0026661,-0.0088768
1698145301932,0.0042481,0.0035917499999999,-0.0081543
1698145301946,0.0039045999999999,0.00738722,-0.0060857
1698145301961,0.0041792,0.01160811,-0.0034532999999999
1698145301974,0.0034714999999999,0.0141855720999999,-0.0022126
1698145301988,0.0035927,0.0170285079,-0.0009186999999999
1698145302001,0.0044696999999999,0.02201009,-0.0001874
1698145302015,0.0039491,0.0295312899999999,0.0001024
1698145302029,0.0033583999999999,0.04282775,-0.0008456
1698145302044,0.0026580999999999,0.0639358999999999,-0.007716
1698145302058,0.0010749,0.0843349,-0.0093885
1698145302072,-0.0016174,0.0777737,-0.0031027999999999
1698145302085,-0.0038106999999999,0.0646592999999999,-0.0006201999999999
1698145302099,-0.0059067,0.052102,0.006182
1698145302113,-0.0076150999999999,0.0416125,0.0132105999999999
1698145302127,-0.0097509,0.0258872,0.0192943999999999
1698145302140,-0.0122580999999999,0.0107705,0.0223545
1698145302154,-0.0149207,0.0008135999999999,0.0256576
1698145302168,-0.0152526,-0.0019373,0.0235599
1698145302181,-0.01596641,0.002136,0.0214041999999999
1698145302196,-0.01758709,0.0053744999999999,0.0210158999999999
1698145302211,-0.01792784,0.0001802,0.0206554999999999
1698145302225,-0.0193862299999999,-0.0074488999999999,0.0214631
1698145302238,-0.018201951,-0.0137865,0.0206951
1698145302253,-0.014305445,-0.0154047999999999,0.0178388999999999
1698145302266,-0.012208204,-0.0168678,0.0178753999999999
1698145302279,-0.0090076699999999,-0.0155848999999999,0.0150961
1698145302294,-0.00602175,-0.0155932,0.0130205999999999
1698145302308,-0.0043739699999999,-0.0176122999999999,0.0105374
1698145302322,-0.0034959199999999,-0.0196944,0.0079727
1698145302335,-0.00367514,-0.0249732,0.0070246
1698145302350,-0.0032491899999999,-0.0300402999999999,0.0050698999999999
1698145302363,-0.00231755,-0.0299196,0.0021155999999999
1698145302378,-0.0016150799999999,-0.0297569999999999,-1.369999999997762e-05
1698145302391,-0.00192574,-0.0306782999999999,-0.0012581
1698145302404,-0.00254026,-0.0315248,-0.0026684
1698145302418,-0.0030547199999999,-0.0373628999999999,-0.0043333999999999
1698145302433,-0.00304414,-0.0365748,-0.0058952999999999
1698145302445,-0.00307963,-0.0356441999999999,-0.0075794
1698145302460,-0.00332161,-0.03283064,-0.0087219
1698145302474,-0.00361132,-0.0283255699999999,-0.0105491999999999
1698145302487,-0.0040592399999999,-0.02419087,-0.0120053
1698145302500,-0.00466483,-0.02124828,-0.0126420999999999
1698145302514,-0.00534996,-0.0195259969999999,-0.0143233999999999
1698145302529,-0.0056694399999999,-0.015300903,-0.0148204
1698145302543,-0.0064323899999999,-0.0124853999999999,-0.0155129999999999
1698145302559,-0.0064967799999999,-0.0095943,-0.0157648
1698145302571,-0.0068661,-0.0091617399999999,-0.0154938999999999
1698145302585,-0.0067243,-0.00945272,-0.0158524
1698145302598,-0.0073413,-0.0077415999999999,-0.0165737999999999
1698145302612,-0.0074429,-0.00490619,-0.016413
1698145302626,-0.0087308999999999,-0.00259397,-0.0171644
1698145302640,-0.0089481,-0.0003506399999999,-0.0159853999999999
1698145302655,-0.0099520999999999,0.00275567,-0.0153749999999999
1698145302669,-0.0108987,0.0062661099999999,-0.0156513
1698145302683,-0.0102469999999999,0.0121156099999999,-0.0153712999999999
1698145302698,-0.0086705,0.01685603,-0.0145297
1698145302710,-0.0085998999999999,0.0209962309999999,-0.0140913999999999
1698145302724,-0.0082445999999999,0.023607979,-0.0133624999999999
1698145302738,-0.0074598999999999,0.02296937,-0.0116949
1698145302750,-0.0057072999999999,0.0226658299999999,-0.0090004999999999
1698145302764,-0.0035721,0.02189105,-0.0071568
1698145302779,-0.0033677,0.0280152399999999,-0.0071379999999999
1698145302794,-0.0030828999999999,0.0360572,-0.0078508999999999
1698145302807,-0.0031245,0.0529068,-0.0116435
1698145302820,-0.0022818999999999,0.0757287999999999,-0.0132726999999999
1698145302834,7.579999999998699e-05,0.0748185,-0.0082046
1698145302848,0.0034321999999999,0.0610090999999999,-0.0039953
1698145302863,0.0057437999999999,0.0456503,0.0029706999999999
1698145302877,0.0075981,0.0300808999999999,0.0102967999999999
1698145302891,0.0095029999999999,0.0132118999999999,0.0171327
1698145302906,0.013639,-0.0005104999999999,0.0260892
1698145302919,0.0159813,-0.0095940999999999,0.0261046
1698145302932,0.0164520999999999,-0.0078373999999999,0.0271690999999999
1698145302946,0.0167759999999999,0.0003026999999999,0.0275309
1698145302961,0.0186919,0.0054928,0.0282729999999999
1698145302974,0.020676,0.0022307999999999,0.0274231999999999
1698145302989,0.02068304,-0.0022910999999999,0.0236742999999999
1698145303001,0.0222170899999999,-0.0033918,0.0226535
1698145303014,0.02167493,-0.0027744,0.0205327999999999
1698145303028,0.0208547199999999,-0.0015828999999999,0.0179911
1698145303043,0.018572029,-0.0017882,0.0135782999999999
1698145303059,0.018273961,-0.0033991999999999,0.0104651
1698145303072,0.0153238199999999,-0.005732,0.0061927999999999
1698145303086,0.0134040799999999,-0.0112442999999999,0.0033416
1698145303100,0.01157095,-0.017853,0.0009697999999999
1698145303113,0.0094733299999999,-0.0236727999999999,-0.0023621999999999
1698145303127,0.00756711,-0.0277576999999999,-0.0056414
1698145303140,0.00588652,-0.0301123999999999,-0.0079158999999999
1698145303154,0.0042803399999999,-0.0312712,-0.0093102999999999
1698145303168,0.00341025,-0.0336582,-0.0107779
1698145303182,0.0027828399999999,-0.0339106,-0.0122388999999999
1698145303198,0.00270449,-0.0365562999999999,-0.0130375999999999
1698145303211,0.0024406899999999,-0.0356668999999999,-0.0130913
1698145303225,0.00275609,-0.0362855,-0.0138449999999999
1698145303237,0.0028928099999999,-0.0333227999999999,-0.0137232999999999
1698145303251,0.00375051,-0.0318506999999999,-0.0147107
1698145303265,0.0039664999999999,-0.02889957,-0.0165319999999999
1698145303280,0.0040897,-0.0255579,-0.0165450999999999
1698145303297,0.0041733999999999,-0.0240129119999999,-0.0172253
1698145303308,0.0044036999999999,-0.021455938,-0.0162861
1698145303322,0.0052613,-0.01856327,-0.0152518999999999
1698145303336,0.0065470999999999,-0.0152066199999999,-0.0152199
1698145303349,0.007915,-0.01142775,-0.0153349999999999
1698145303363,0.0078503,-0.00558045,-0.0136815999999999
1698145303376,0.0084063,-0.0023195099999999,-0.0129475
1698145303391,0.0072529999999999,0.00054049,-0.0105523
1698145303403,0.0073416,0.00650614,-0.0094834999999999
1698145303417,0.0072596,0.0115541899999999,-0.0084855
1698145303431,0.0084078999999999,0.01750104,-0.0075444999999999
1698145303446,0.0084458,0.0200348799999999,-0.0061522999999999
1698145303461,0.0079692,0.02444834,-0.0052684
1698145303475,0.0070322999999999,0.02915621,-0.0044660999999999
1698145303490,0.0060269,0.0351695999999999,-0.004506
1698145303503,0.0063164,0.04556553,-0.0018481
1698145303516,0.0050971999999999,0.049444,0.0017515
1698145303530,0.0047202,0.0563971999999999,-0.0003322
1698145303543,0.0060015999999999,0.0778321,-0.0022714999999999
1698145303557,0.0028543,0.0670801999999999,0.0073265999999999
1698145303571,0.0008429,0.0503036,0.0096808999999999
1698145303585,-0.0033034,0.0369281,0.0150040999999999
1698145303600,-0.0092939999999999,0.0213054999999999,0.0241523
1698145303611,-0.0139517,0.0039699,0.0268846
1698145303626,-0.0177882,-0.0045639,0.0275767
1698145303640,-0.0197722999999999,-0.0037707,0.0247093999999999
1698145303654,-0.0210373999999999,0.0017364,0.0225264
1698145303669,-0.0220074,0.0037970999999999,0.0233926999999999
1698145303683,-0.0219026999999999,-0.0004538,0.0234006999999999
1698145303696,-0.02177993,-0.0053429999999999,0.0241931
1698145303710,-0.0212431099999999,-0.0085451,0.0243492999999999
1698145303724,-0.01797113,-0.0077129999999999,0.0219478
1698145303738,-0.01367889,-0.0073824,0.0209746
1698145303751,-0.0094798999999999,-0.0076898,0.0195938999999999
1698145303766,-0.00610083,-0.0103287999999999,0.0173480999999999
1698145303779,-0.0039281699999999,-0.0134064999999999,0.0154817
1698145303793,-0.00196615,-0.0160712,0.0120597999999999
1698145303807,-0.00164328,-0.0203333,0.0095262999999999
1698145303821,-0.0016460599999999,-0.0226619,0.005512
1698145303835,-0.00193865,-0.0247875,0.0028038999999999
1698145303848,-0.0029431909999999,-0.0281157999999999,0.0003487999999999
1698145303862,-0.003601209,-0.0297729,-0.0014021999999999
1698145303876,-0.004146957,-0.0335604999999999,-0.0036148
1698145303891,-0.003970136,-0.0340941,-0.0058806999999999
1698145303905,-0.004138887,-0.0307912999999999,-0.007356
1698145303921,-0.00448601,-0.0306236,-0.0089294
1698145303934,-0.0037336799999999,-0.0271678999999999,-0.0088251999999999
1698145303947,-0.00379925,-0.0255130999999999,-0.0094729
1698145303960,-0.00361622,-0.02335196,-0.0098644999999999
1698145303974,-0.0042949,-0.0216558899999999,-0.0105047999999999
1698145303989,-0.0046862699999999,-0.0206034,-0.0113389999999999
1698145304003,-0.00407079,-0.01964253,-0.0118648
1698145304016,-0.00282421,-0.01663561,-0.0129695
1698145304030,-0.0015245199999999,-0.01271602,-0.0141055999999999
1698145304044,-0.0013584,-0.01089839,-0.0154165
1698145304058,-0.00214057,-0.0102015,-0.0150278999999999
1698145304072,-0.0028590299999999,-0.0111102699999999,-0.0148886
1698145304084,-0.0041258299999999,-0.0102677399999999,-0.0161407
1698145304098,-0.00523622,-0.0079790299999999,-0.0177646999999999
1698145304113,-0.00504029,-0.00680716,-0.0186198
