time,acceleration_x,acceleration_y,acceleration_z
1698908436366,-0.005530019,0.004834899,0.0002669754
1698908436376,-0.0097686199999999,0.012266349,-0.0014897136
1698908436391,-0.0134237039999999,0.019270691,-0.0035715186
1698908436411,-0.0165563769999999,0.025972295,-0.0061072866
1698908436430,-0.0188760859999999,0.0319832409999999,-0.0092116626
1698908436450,-0.0203184709999999,0.0369491449999999,-0.0127609226
1698908436467,-0.0210235051999999,0.040900173,-0.0166514596
1698908436483,-0.0208011359999999,0.044193907,-0.0207641876
1698908436501,-0.0194384759999999,0.047035533,-0.0248122136
1698908436517,-0.0172665979999999,0.048890982,-0.0288730806
1698908436532,-0.0143218409999999,0.05006088,-0.0328489796
1698908436548,-0.0108918429999999,0.0502193462,-0.0366228826
1698908436564,-0.0069725029999999,0.0498515698,-0.0403783246
1698908436578,-0.0028160629999999,0.0492320188,-0.0435669266
1698908436592,0.001657373,0.0488631827,-0.0467062516
1698908436609,0.006308922,0.0493082359,-0.0499087146
1698908436623,0.011253582,0.0497537868,-0.0530880656
1698908436638,0.01669815,0.0498968186,-0.0560739185999999
1698908436652,0.022505984,0.0491090489999999,-0.0586205265999999
1698908436666,0.028818538,0.0476005829999999,-0.0605649305999999
1698908436681,0.0355241,0.0462604359999999,-0.0623663845999999
1698908436695,0.043139313,0.0456156742,-0.0638031395999999
1698908436709,0.05122721,0.0454920262,-0.0650144695999999
1698908436721,0.059665441,0.0458373258,-0.0660005086999999
1698908436734,0.068423628,0.0464437783,-0.066590797
1698908436749,0.077551932,0.0469012166,-0.0668767991999999
1698908436763,0.08734713,0.0471026263,-0.0667261882999999
1698908436777,0.09774887,0.0475025693,-0.0666232417999999
1698908436792,0.10854374,0.0485648053,-0.0662086043999999
1698908436805,0.11975917,0.0498501113,-0.0654041218999999
1698908436820,0.13130819,0.0512583153,-0.0640954618999999
1698908436836,0.1431149,0.0527348943,-0.0621344058999999
1698908436849,0.1550881,0.0545779973,-0.0596430088999999
1698908436863,0.16703146,0.0568933243,-0.0571209468999999
1698908436878,0.17871469,0.0596127123,-0.0545916748999999
1698908436893,0.18998098,0.0627248523,-0.0523214098999999
1698908436907,0.20087574,0.0651945193,-0.0500479728999999
1698908436923,0.21144881,0.0669343313,-0.0478496078999999
1698908436935,0.22163775,0.0682684993,-0.0458846138999999
1698908436946,0.231564268,0.0693362223,-0.0440651138999999
1698908436957,0.241178505,0.0699058297,-0.0424422638999999
1698908436971,0.250342726,0.0703924886,-0.0409557718999999
1698908436986,0.25894283,0.0708896308,-0.0393359698999999
1698908437000,0.266893454,0.0715244186,-0.0379330328999999
1698908437013,0.274244268,0.0728252376,-0.0366911398999999
1698908437028,0.281095471,0.0745206235999999,-0.0354957508999999
1698908437042,0.287585959,0.0758530685999999,-0.0338764898999999
1698908437056,0.293659853,0.0767456330999999,-0.0324444848999999
1698908437068,0.299027248,0.0773113667999999,-0.0309703788999999
1698908437082,0.304283271,0.0774369834999999,-0.0290826358999999
1698908437097,0.309264507,0.0774963840099999,-0.0267198158999999
1698908437111,0.313831142,0.0775843858399999,-0.0241748088999999
1698908437125,0.318095071,0.0783598972399999,-0.0212741718999999
1698908437139,0.322143515,0.0800481192399999,-0.0181411258999999
1698908437154,0.3260881929999999,0.08226265124,-0.0150530398999999
1698908437166,0.3300016529999999,0.0845173872399999,-0.0120441388999999
1698908437179,0.333995132,0.08619408024,-0.0095771038999999
1698908437194,0.338034018,0.08715573534,-0.0075345838999999
1698908437207,0.342272503,0.08690278214,-0.0059431668999999
1698908437221,0.346763148,0.08567212114,-0.0050194863999999
1698908437235,0.35156316,0.08360452314,-0.0045655940999999
1698908437248,0.35678746,0.0809561971399999,-0.0044404589999999
1698908437261,0.362155976,0.0787460671399999,-0.0045757008999999
1698908437275,0.367637214,0.0766915611399999,-0.0049847593999999
1698908437290,0.373030949,0.07449174514,-0.0057023308999999
1698908437305,0.378326448,0.0717664781399999,-0.0069160448999999
1698908437318,0.383648759,0.06833087814,-0.0084053488999999
1698908437332,0.388982066,0.06475401014,-0.0099996778999999
1698908437345,0.3943049310000001,0.06127043114,-0.0115945798999999
1698908437359,0.3996837590000001,0.0584573101399999,-0.0131815728999999
1698908437373,0.4050959360000001,0.05625593714,-0.0146075288999999
1698908437386,0.4104593170000001,0.05435392214,-0.0160994668999999
1698908437401,0.4157518960000001,0.0528283251399999,-0.0174806578999999
1698908437414,0.4210715640000001,0.0513533941399999,-0.0189150298999999
1698908437428,0.4267150850000001,0.0502308431399999,-0.0201822968999999
1698908437442,0.4329025770000001,0.0500968020399999,-0.0209835736999999
1698908437455,0.4395454460000001,0.0507926922399999,-0.0216184819999999
1698908437470,0.4468405020000001,0.0513095378399999,-0.0219828407999999
1698908437483,0.4545425420000001,0.0514495045399999,-0.0226990758999999
1698908437498,0.4627305670000001,0.05124493324,-0.0235414600999999
1698908437511,0.4713222820000001,0.05053681204,-0.0245310526999999
1698908437525,0.4799898460000001,0.0494131180399999,-0.0261576526999999
1698908437540,0.4885477370000001,0.0480234860399999,-0.0284679166999999
1698908437553,0.4970213450000001,0.0460854540399999,-0.0310485316999999
1698908437567,0.5053561820000002,0.0433866000399999,-0.0338374166999999
1698908437580,0.5136216340000002,0.04000254504,-0.0369140626999999
1698908437596,0.5216963120000001,0.03595988704,-0.0402868026999999
1698908437610,0.5295812380000001,0.0316694400399999,-0.0439374306999999
1698908437624,0.5373638190000001,0.0271356230399999,-0.0477447066999999
1698908437638,0.5450398200000001,0.0226082680399999,-0.0516249946999999
1698908437651,0.5524173360000001,0.01817777104,-0.0556600526999999
1698908437666,0.5593646040000001,0.01434008104,-0.0597673456999999
1698908437679,0.5657816640000001,0.01092016104,-0.0638540376999999
1698908437692,0.5715188940000001,0.0076910110399999,-0.0679339616999999
1698908437706,0.5767248970000001,0.0053166840399999,-0.0718552916999999
1698908437721,0.5809090140000001,0.0040644510399999,-0.0758232116999999
1698908437735,0.584472113,0.0041806529399999,-0.0797188456999999
1698908437748,0.587087551,0.0055755659399999,-0.0838628556999999
1698908437762,0.588746588,0.0082055469399999,-0.0884614456999999
1698908437776,0.5895344792,0.0116995979399999,-0.0930856316999999
1698908437790,0.5896346431,0.01588459694,-0.0974600976999999
1698908437804,0.5886817847,0.0201078179399999,-0.1019804316999999
1698908437817,0.5868655787,0.0244054389399999,-0.1065649976999999
1698908437831,0.5843910767,0.0285071629399999,-0.1112012086999999
1698908437845,0.5814499577,0.0323096919399999,-0.1158239826999999
1698908437859,0.5781248326999999,0.0361722319399999,-0.1206198306999999
1698908437873,0.5742993636999999,0.0396274949399999,-0.1256703216999999
1698908437889,0.5700346446999999,0.0422775179399999,-0.1307401086999999
1698908437901,0.5654257876999998,0.0446402809399999,-0.1357932086999999
1698908437913,0.5603017626999999,0.0463125439399999,-0.1408198516999999
1698908437929,0.5547839626999999,0.0476225739399999,-0.1457795086999999
1698908437943,0.5486844236999998,0.0483492981399999,-0.1503356146999999
1698908437957,0.5421713946999999,0.0486973184399999,-0.1548578226999999
1698908437970,0.5357912226999999,0.0493874634399999,-0.1594602386999999
1698908437983,0.5295343597,0.0499132486399999,-0.1641641877
1698908437998,0.5231689626999999,0.0497713239399999,-0.1693924607
1698908438012,0.5165366056999999,0.0483641019399999,-0.1744178597
1698908438027,0.5094898126999999,0.0463733789399999,-0.1795283817
1698908438042,0.5020083446999999,0.0435883879399999,-0.1843508567
1698908438055,0.4937995396999999,0.0400564749399999,-0.1887833207
1698908438068,0.4851310136999999,0.0362082579399999,-0.1929422957
1698908438082,0.4759365216999999,0.0323927619399999,-0.1971390317
1698908438096,0.4662122756999999,0.0294580739399999,-0.2011578807
1698908438110,0.4562938526999999,0.0280280349399999,-0.2052424887
1698908438125,0.4458750326999999,0.0280176148999999,-0.2088553727
1698908438139,0.4351871126999999,0.0290479948999999,-0.2124149597
1698908438151,0.4245359726999999,0.0309312748999999,-0.2159985077
1698908438166,0.4141283426999999,0.0339256578999999,-0.2198536697
1698908438180,0.4040483726999999,0.0373184368999999,-0.2241091467
1698908438194,0.3943164666999998,0.0407304708999999,-0.2282433927
1698908438208,0.3849120206999998,0.0440857568999999,-0.2327491527
1698908438222,0.3758231656999998,0.0472908689,-0.2371378507
1698908438235,0.3672840966999998,0.0504427338999999,-0.2414675627
1698908438249,0.3590720966999998,0.0529424839,-0.2456542067
1698908438263,0.3511545056999998,0.0549659519,-0.2497527997
1698908438276,0.3434865296999998,0.0565119199,-0.2538596347
1698908438290,0.3361326436999998,0.0571350716,-0.2578888017
1698908438304,0.3292957016999998,0.0565084966999999,-0.2619544197
1698908438318,0.3228174296999998,0.0546658046999999,-0.2662816437
1698908438333,0.3168361406999998,0.0518268166999999,-0.2705398357
1698908438346,0.3112919266999998,0.0486346816999999,-0.2748256267
1698908438361,0.3058319936999998,0.0455502217,-0.2789978647
1698908438373,0.3006173266999998,0.0427907347,-0.2828397417
1698908438388,0.2954297346999998,0.0403821267,-0.2863492937
1698908438402,0.2903800636999998,0.0381805567,-0.2896111567
1698908438415,0.2855004296999998,0.0361794977,-0.2921517247
1698908438429,0.2808862096999998,0.0348919007,-0.2945768647
1698908438444,0.2762448746999997,0.0344068539,-0.2965142447
1698908438458,0.2712822196999997,0.0346403662,-0.2983384037
1698908438471,0.2660505956999998,0.0352055053,-0.2994960067
1698908438486,0.2605961826999998,0.0355982896,-0.300286413
1698908438500,0.2552260806999998,0.0361739816999999,-0.3009082935
1698908438513,0.2501162906999998,0.0370664818999999,-0.301095797
1698908438527,0.2452758986999998,0.0379743159,-0.30112409151
1698908438541,0.2407488336999998,0.0389828259,-0.30086104061
1698908438556,0.2366902216999998,0.0397853725999999,-0.30041284961
1698908438569,0.2332234016999998,0.0405293070999999,-0.29960991971
1698908438583,0.2302431566999998,0.0411850654999999,-0.29870250021
1698908438597,0.2278420296999998,0.0413951528999999,-0.29736878421
1698908438611,0.2259162126999998,0.0414104944299999,-0.29567152021
1698908438625,0.2245176376999998,0.0416636850299999,-0.29362189121
1698908438639,0.2236629349999998,0.0419834706299999,-0.29126669421
1698908438652,0.2230980155999998,0.0423561993299999,-0.28872653421
1698908438667,0.2230184592899998,0.0427785273299999,-0.28582152021
1698908438681,0.2234719264899998,0.0432653730299999,-0.2828100942100001
1698908438694,0.2243318906899998,0.0438492318299999,-0.2797258892100001
1698908438708,0.2256500846899998,0.04410362563,-0.2765222582100001
1698908438722,0.2274049046899998,0.04388644983,-0.2729653872100001
1698908438736,0.2293894246899998,0.04377740273,-0.26945755021
1698908438750,0.2315241506899998,0.0437423109599999,-0.26606226821
1698908438765,0.2338733256899998,0.0434948911599999,-0.2625914522100001
1698908438779,0.2365607786899998,0.0435062624299999,-0.25911512221
1698908438793,0.2396196896899998,0.0434628152999999,-0.25587548821
1698908438806,0.2430168716899998,0.0439636855999999,-0.2527055502100001
1698908438820,0.2467792826899998,0.0444881457999999,-0.24970036121
1698908438834,0.2510035476899998,0.0450166988999999,-0.2468388702100001
1698908438847,0.2554758766899997,0.0455520727999999,-0.2443200692100001
1698908438862,0.2601116606899997,0.0459635114999999,-0.2423011172100001
1698908438876,0.2649031026899997,0.0460111286799999,-0.2406532562100001
1698908438890,0.2697702316899997,0.0458785041799999,-0.2393705422100001
1698908438904,0.2747165406899997,0.04570384858,-0.2382034802100001
1698908438918,0.2797173806899997,0.0453568936799999,-0.2370642432100001
1698908438932,0.2846311706899997,0.0446872603799999,-0.2358109132100001
1698908438945,0.2895835286899997,0.04407043258,-0.2342924392100001
1698908438960,0.2942602416899997,0.04350886178,-0.2328245382100001
1698908438974,0.2988508626899997,0.0429008852799999,-0.2312130212100001
1698908438986,0.3032404236899997,0.0425677161799999,-0.2296110092100001
1698908439001,0.3074582846899997,0.0419969510799999,-0.2278138882100001
1698908439014,0.3115152156899997,0.0412136502799999,-0.2257268972100001
1698908439029,0.3151021336899997,0.0403187398799999,-0.2235184372100001
1698908439043,0.3182229226899997,0.0393638592799999,-0.2209456282100001
1698908439056,0.3211451706899997,0.0386568518799999,-0.2182799692100001
1698908439069,0.3235668246899997,0.0385570058999999,-0.2153974352100001
1698908439085,0.3258620076899997,0.0389799448999999,-0.2123202462100001
1698908439099,0.3278377776899996,0.0400070908999999,-0.2092925832100001
1698908439111,0.3294634356899996,0.0411126048999999,-0.2065111082100001
1698908439126,0.3306647936899996,0.0422344519,-0.2039569862100001
1698908439140,0.3316221990899996,0.0430936916,-0.2014819872100001
1698908439153,0.3325518548899996,0.0440070474,-0.1988994002100001
1698908439167,0.3333082243899996,0.0447005149999999,-0.1965317822100001
1698908439181,0.3340097032899996,0.0448126931999999,-0.1942973582100001
1698908439196,0.3346129523899996,0.0446958784,-0.1922048292100001
1698908439209,0.3352282817899996,0.0442838125,-0.19014087921
1698908439223,0.3359393601899996,0.0438438154,-0.1883650182100001
1698908439238,0.3368376168899996,0.0435423172,-0.1863665792100001
1698908439250,0.3377025012899995,0.0431864854,-0.1845119722100001
1698908439264,0.3383534724899996,0.0428389954,-0.1823973502100001
1698908439278,0.3387409222899996,0.0423255,-0.1803684402100001
1698908439292,0.3391227831899995,0.0420093066,-0.1782437342100001
1698908439306,0.3394777756899995,0.0416879761,-0.17618009421
1698908439320,0.3399566480899995,0.0413138155,-0.17406228721
1698908439335,0.3402443232899995,0.0409365562,-0.1718809752100001
1698908439347,0.3403797500899995,0.040395865,-0.1694624382100001
1698908439362,0.3405366004899995,0.0401810495,-0.1669846782100001
1698908439375,0.3406166278199996,0.0405850498,-0.1642846632100001
1698908439389,0.3406501049699996,0.0413666488,-0.1615537082100001
1698908439403,0.3406882567199996,0.0424169358,-0.1585711602100001
1698908439420,0.3408159841199996,0.0433417605,-0.1554154202100001
1698908439432,0.3409222662199996,0.0443114557999999,-0.1520183552100001
1698908439446,0.3409413789999996,0.0450867694,-0.14832162721
1698908439460,0.3410156590799996,0.0458148803999999,-0.14446438121
1698908439474,0.3411534905799996,0.0464328671,-0.14062875421
1698908439487,0.3413026225799996,0.0468332299999999,-0.13670503121
1698908439502,0.3414964952799996,0.0471486889,-0.13296004221
1698908439514,0.3418027110799996,0.0469349971,-0.12931582421
1698908439529,0.3422875270799996,0.0466837192,-0.12592210721
1698908439543,0.3427628598799996,0.0465097829,-0.12296526321
1698908439557,0.3432232424799996,0.0467280832,-0.12039550421
1698908439571,0.3437252810799995,0.0468838219,-0.11823681821
1698908439584,0.3442523878799995,0.046880799293,-0.11608860021
1698908439598,0.3445522864799996,0.046606451393,-0.11418139421
1698908439611,0.3447774398799996,0.046196673093,-0.11243131921
1698908439626,0.3449856308799996,0.045673862193,-0.11062777621
1698908439641,0.3452636760799996,0.044887727593,-0.10858491821
1698908439654,0.3455097015799996,0.044457099293,-0.10643215021
1698908439668,0.3456455093799996,0.044025489193,-0.10422659021
1698908439682,0.3458834359799996,0.043845707393,-0.10209778021
1698908439696,0.3462962259799996,0.043940489193,-0.10017834521
1698908439710,0.3469642480799996,0.044001653933,-0.09833040221
1698908439722,0.3477826264799996,0.044006701949,-0.09661090121
1698908439737,0.3486414352799996,0.043769296349,-0.09510174521
1698908439752,0.3496295274799996,0.043623159549,-0.09402305421
1698908439766,0.3507448154799996,0.043769986049,-0.09347167211
1698908439779,0.3518978514799996,0.043721148029,-0.09354585785
1698908439793,0.3532580884799996,0.043628370239,-0.09393202535
1698908439807,0.3545372194799996,0.043456208439,-0.09502851735
1698908439820,0.3559709064799996,0.043331045139,-0.09671480335
1698908439834,0.3578087544799996,0.043468557839,-0.09860540635
1698908439848,0.3595660844799996,0.043882306939,-0.10068101035
1698908439863,0.3609714514799996,0.044336227539,-0.10320176635
1698908439876,0.3622284394799996,0.045208385339,-0.10620814235
1698908439889,0.3633531164799996,0.045917677339,-0.10945116335
1698908439904,0.3643959844799996,0.046340911039,-0.11281830435
1698908439917,0.3654184614799996,0.046639733039,-0.1164826953500001
1698908439932,0.3664821424799996,0.047108252139,-0.1202545063500001
1698908439945,0.3672917027799996,0.047558095539,-0.1244384953500001
1698908439961,0.3680872195799996,0.047965101139,-0.12850227135
1698908439974,0.3687490600799996,0.048304506339,-0.1327312713500001
1698908439986,0.3692855767799996,0.048163773839,-0.1368957003500001
1698908440001,0.3695275421799996,0.047795908639,-0.1411778613500001
1698908440015,0.3695398388399996,0.047250930539,-0.1454227413500001
1698908440028,0.3692536629399996,0.046497407939,-0.1494013603500001
1698908440042,0.3686255454399996,0.045820571439,-0.1530173513500001
1698908440059,0.3675380244399996,0.045293116639,-0.1562392443500001
1698908440071,0.3661725794399996,0.044911370439,-0.1589841333500001
1698908440086,0.3643797354399996,0.044644751039,-0.1611387523500001
1698908440099,0.3623084564399996,0.044582653199,-0.1625779463500001
1698908440112,0.3599872394399996,0.044659595449,-0.1632475735500001
1698908440126,0.3574288064399996,0.045117991249,-0.1633767557500001
1698908440142,0.3546701584399996,0.046082686649,-0.1626989667500001
1698908440155,0.3516833224399996,0.047481090649,-0.1613716907500001
1698908440169,0.3483886864399996,0.049158501649,-0.1592920977500001
1698908440183,0.3449207164399996,0.051115420649,-0.1566231807500001
1698908440197,0.3413493264399996,0.053087566649,-0.1533325927500001
1698908440211,0.3377007394399996,0.055544000649,-0.1497309037500001
1698908440226,0.3339594184399996,0.058291074649,-0.1458008667500001
1698908440237,0.3300766234399996,0.061297911649,-0.1419782537500001
1698908440251,0.3262219054399996,0.063717645649,-0.1380320017500001
1698908440266,0.3226767774399996,0.065696810649,-0.1341179067500001
1698908440279,0.3194608974399996,0.067449514649,-0.1301216247500001
1698908440293,0.3164668974399996,0.069031490649,-0.1268266007500001
1698908440307,0.3136377214399996,0.070290961649,-0.1240037267500001
1698908440322,0.3110820134399996,0.071309939649,-0.12134055575
1698908440336,0.3086824254399996,0.071919735249,-0.1187759777500001
1698908440348,0.3065390714399996,0.072215939549,-0.1162871937500001
1698908440363,0.3046812954399996,0.072069099749,-0.1134095307500001
1698908440376,0.3027739654399997,0.071410996649,-0.1105099587500001
1698908440391,0.3007505704399997,0.070551063149,-0.10740257375
1698908440405,0.2987348494399997,0.069639882649,-0.10411595075
1698908440419,0.2966878144399997,0.068814715149,-0.1007636337500001
1698908440433,0.2946947904399997,0.067842630449,-0.09701134075
1698908440446,0.2925768134399997,0.066534971449,-0.09290450175
1698908440461,0.2902367164399997,0.064959393449,-0.0887070887500001
1698908440474,0.2875471674399997,0.063269421449,-0.0842897527500001
1698908440488,0.2846886054399997,0.062019403449,-0.0799972417500001
1698908440501,0.2814050124399997,0.061838963549,-0.0759430977500001
1698908440515,0.2779040244399997,0.062281543849,-0.0721735507500001
1698908440529,0.2738622184399997,0.063054131249,-0.0686604897500001
1698908440543,0.2694160164399997,0.063970381649,-0.0656797977500001
1698908440558,0.2642367044399997,0.065114171649,-0.0633056817500001
1698908440571,0.2587321124399998,0.066481733649,-0.0613795817500001
1698908440586,0.2529141734399998,0.068231467649,-0.0596441327500001
1698908440600,0.2468154434399997,0.070317508649,-0.0585721997500001
1698908440613,0.2402240004399997,0.072247106649,-0.0581943521500001
1698908440628,0.2334409504399997,0.073968534649,-0.0582070978800001
1698908440641,0.2263372334399997,0.075331573649,-0.0587236764800001
1698908440653,0.2190907604399997,0.076532274649,-0.0598764394800001
1698908440669,0.2117554684399997,0.077623263649,-0.0616128594800001
1698908440683,0.2041887054399997,0.077926214049,-0.0640307134800001
1698908440696,0.1964477184399997,0.077846471189,-0.0669937564800001
1698908440711,0.1885501604399997,0.077108596289,-0.0701921734800001
1698908440724,0.1806405104399997,0.075851947289,-0.0736073624800001
1698908440738,0.1724769624399997,0.074036856289,-0.0775198594800001
1698908440750,0.1642500454399997,0.072222622289,-0.0814784344800001
1698908440765,0.1558304774399997,0.070360528289,-0.0854925944800001
1698908440778,0.1472132864399997,0.068945127289,-0.0899396194800001
1698908440794,0.1385475914399997,0.068050730589,-0.0942178634800001
1698908440807,0.1297457144399997,0.066856155589,-0.0985562334800001
1698908440820,0.1209506714399997,0.065785374589,-0.1025875454800001
1698908440835,0.1120810404399997,0.064965550889,-0.1065049304800001
1698908440849,0.1032303434399997,0.064409781789,-0.1098142074800001
1698908440863,0.0943283054399997,0.064527688289,-0.1127545994800001
1698908440877,0.0855075844399997,0.065161728389,-0.1154293824800001
1698908440892,0.0770451834399997,0.066417070389,-0.1175676404800001
1698908440905,0.0690540974399997,0.067593863389,-0.1192564454800001
1698908440919,0.0615630304399997,0.068408582589,-0.1206231034800001
1698908440933,0.0545250214399997,0.068424114289,-0.1215869857800001
1698908440946,0.0480970954399997,0.067902423089,-0.1221062727800001
1698908440960,0.0425281594399997,0.067249194689,-0.1218669110800001
1698908440974,0.0378659834399997,0.066587998989,-0.1209645950800001
1698908440989,0.0341522874399997,0.066193295789,-0.1191638360800001
1698908441002,0.0314070324399997,0.065574615289,-0.1167267640800001
1698908441016,0.0297518274399997,0.065035141289,-0.1138702470800001
1698908441032,0.0292511928399997,0.064494192489,-0.1108834790800001
1698908441044,0.0298907027399997,0.064265274789,-0.1076444760800001
1698908441057,0.0311402437399997,0.063911763489,-0.1047549750800001
1698908441072,0.0326727627399997,0.063275962189,-0.1018523080800001
1698908441085,0.0344167607399997,0.062665780989,-0.0988191190800001
1698908441099,0.0363731567399997,0.062083368389,-0.0956543620800001
1698908441115,0.0384546597399997,0.061578289389,-0.0922061530800001
1698908441127,0.0404898617399997,0.060852883189,-0.0888202980800001
1698908441142,0.0424868387399997,0.059738746189,-0.0853157720800001
1698908441155,0.0446003567399997,0.058744917389,-0.0818130010800001
1698908441169,0.0470176997399997,0.057789504689,-0.0782772580800001
1698908441183,0.0494158887399997,0.057101943589,-0.0746611120800001
1698908441198,0.0518814097399997,0.056288368089,-0.0708748090800001
1698908441209,0.0542888207399997,0.055421839989,-0.0667158770800001
1698908441226,0.0564911057399997,0.054695281189,-0.0624306430800001
1698908441239,0.0586744637399997,0.053917424889,-0.0582735740800001
1698908441252,0.0607501907399997,0.053866120079,-0.0539857320800001
1698908441266,0.0628892767399997,0.054366148779,-0.0497795560800001
1698908441279,0.0649121227399997,0.055457590779,-0.0456159020800001
1698908441294,0.0666956297399997,0.057100079779,-0.0419199610800001
1698908441308,0.0681609607399997,0.059442131779,-0.0385007920800001
1698908441322,0.0694524437399997,0.062032370779,-0.0352655600800001
1698908441336,0.0706107127399997,0.064353853779,-0.0322664750800001
1698908441350,0.0715723015399997,0.066473570779,-0.0299231600800001
1698908441364,0.0724187547399997,0.068179036779,-0.0279496960800001
1698908441378,0.0732712423399997,0.069636542779,-0.0265297400800001
1698908441392,0.0742329827399997,0.070863788779,-0.0256407754800001
1698908441406,0.0752768567399997,0.071949742779,-0.0253267153800001
1698908441418,0.0764114897399997,0.073161842779,-0.0258004319800001
1698908441434,0.0776865727399997,0.073714810479,-0.0266642615800001
1698908441447,0.0790962907399997,0.073642723959,-0.0278655065800001
1698908441461,0.0805887877399997,0.073113953659,-0.0296517715800001
1698908441475,0.0823556777399997,0.071887948659,-0.0314805845800001
1698908441488,0.0843623417399997,0.070216666659,-0.0333407655800001
1698908441502,0.0864107217399997,0.068190444659,-0.0355514185800001
1698908441517,0.0885741287399997,0.065934711659,-0.0378838055800001
1698908441530,0.0909423997399997,0.063618832659,-0.0399629045800001
1698908441543,0.0933920987399997,0.061589622659,-0.0420425825800001
1698908441558,0.0960774017399997,0.060040218659,-0.0440202955800001
1698908441572,0.0990997007399997,0.058936121659,-0.0456750585800001
1698908441585,0.1021720957399997,0.057947440059,-0.0471024055800001
1698908441600,0.1053151777399997,0.056737767059,-0.0482697335800001
1698908441613,0.1083706987399997,0.055365916059,-0.0491037067800001
1698908441627,0.1112366197399997,0.054111660059,-0.0499656830800001
1698908441642,0.1139970547399997,0.053232706959,-0.0506016324800001
1698908441655,0.1166003787399997,0.052809895759,-0.0511809621800001
1698908441668,0.1189490017399997,0.052718114759,-0.0516708861800001
1698908441682,0.1212066047399997,0.052638808079,-0.0521816707800001
1698908441696,0.1233843287399997,0.052498174879,-0.0529911785800001
1698908441710,0.1254932767399997,0.052001246379,-0.0539705206800001
1698908441725,0.1274280877399997,0.050926597379,-0.0550755776800001
1698908441739,0.1291261567399997,0.048862263379,-0.0560547533800001
1698908441754,0.1307228737399997,0.046419079379,-0.0564957266800001
1698908441766,0.1324741217399997,0.044527859379,-0.0565960603800001
1698908441781,0.1345869427399997,0.043252159379,-0.0562311536800001
1698908441795,0.1372536877399997,0.043202368959,-0.0553487777800001
1698908441809,0.1402692137399997,0.044053399159,-0.0541475767800001
1698908441822,0.1435143277399997,0.045389426159,-0.0521456167800001
1698908441835,0.1467844667399997,0.046798252159,-0.0495716597800001
1698908441849,0.1499698947399997,0.048421540159,-0.0464771677800001
1698908441865,0.1531030397399997,0.050241236159,-0.0426452207800001
1698908441878,0.1561292577399997,0.052209739159,-0.0382413157800001
1698908441892,0.1588899607399997,0.0542216281590001,-0.0338587907800001
1698908441906,0.1613267737399997,0.0559514331590001,-0.0292216267800001
1698908441919,0.1634689957399997,0.0570774751590001,-0.0244041637800001
1698908441933,0.1653881127399997,0.0578670336590001,-0.0197623287800001
1698908441947,0.1670992047399997,0.0581804889590001,-0.0154053387800001
1698908441961,0.1686732657399997,0.0586669845590001,-0.0111953437800001
1698908441975,0.1700852767399997,0.0591018573590001,-0.0071187687800001
1698908441989,0.1710688664399997,0.0595833024590001,-0.0028073547800001
1698908442005,0.1714538866399997,0.0602930484590001,0.0018622452199998
1698908442015,0.1714320887999997,0.0615663654590001,0.0064571262199998
1698908442030,0.1710010534999997,0.0635145574590001,0.0109557052199998
1698908442044,0.1704075935999997,0.0662211184590001,0.0149378942199998
1698908442060,0.1696106818999997,0.0692801024590001,0.0184475942199998
1698908442072,0.1685044968999997,0.0723420144590001,0.0214946792199998
1698908442089,0.1670767668999997,0.0752932894590001,0.0241778532199998
1698908442100,0.1656606738999997,0.0778644334590001,0.0267943532199998
1698908442113,0.1642541638999997,0.0801669624590001,0.0292047292199998
1698908442127,0.1627210348999997,0.0823681824590001,0.0313642882199998
1698908442141,0.1610676698999997,0.0842155754590001,0.0332372112199998
1698908442156,0.1594695158999997,0.0856654634590001,0.0348740032199998
1698908442170,0.1579927918999997,0.0868383084590001,0.0364950292199998
1698908442183,0.1564267898999997,0.0875770579590001,0.0378920362199998
1698908442198,0.1546836348999997,0.0880798974590001,0.0390239062199998
1698908442211,0.1525996268999997,0.0883832402590001,0.0398028863199998
1698908442223,0.1503203778999997,0.0880476388590001,0.0404787167199998
1698908442238,0.1478992158999997,0.0872632219590001,0.0409313779199998
1698908442253,0.1452940988999997,0.0859428629590001,0.0412690097199998
1698908442267,0.1423737058999997,0.0845652349590001,0.0412677467299998
1698908442280,0.1391590378999997,0.0830159059590001,0.0412473306299998
1698908442295,0.1359869458999997,0.0820328406590001,0.0413180540999998
1698908442309,0.1327234098999997,0.0812503608590001,0.0414641916999998
1698908442322,0.1292652558999997,0.0807215646590001,0.0418449254999998
1698908442335,0.1257159138999997,0.0804824516590001,0.0426940097999998
1698908442350,0.1220910718999997,0.0802031963590001,0.0440489517999998
1698908442364,0.1185265308999997,0.0801082948690001,0.0458628697999998
1698908442377,0.1150435688999997,0.0805126056690001,0.0477842947999998
1698908442392,0.1116203628999997,0.0811072774690001,0.0501707167999998
1698908442406,0.1082463518999997,0.0819159674690001,0.0527321397999998
1698908442419,0.1048606908999997,0.0830780274690001,0.0553431367999998
1698908442433,0.1015933968999997,0.0844317334690001,0.0583264057999998
1698908442446,0.0983623258999997,0.0857343124690001,0.0612514507999998
1698908442461,0.0954128788999997,0.0871614934690001,0.0642993297999998
1698908442475,0.0928260908999997,0.0884857124690001,0.0676687207999998
1698908442491,0.0906229618999997,0.0896059434690001,0.0708533667999998
1698908442503,0.0888571598999997,0.0906955674690001,0.0736286757999998
1698908442517,0.0878266478999997,0.0916723263690001,0.0762286247999998
1698908442531,0.0877795565599997,0.0922430497690001,0.0788425447999998
1698908442545,0.0884701462599997,0.0927557399690001,0.0808994727999998
1698908442558,0.0896724832599997,0.0933180722690001,0.0824169207999998
1698908442574,0.0914659622599997,0.0935850235690001,0.0838800457999998
1698908442586,0.0936243872599997,0.0929930057690001,0.0849459807999998
1698908442600,0.0959053482599997,0.0918316807690001,0.0856745187999998
1698908442614,0.0984539142599997,0.0903415157690001,0.0860800479999998
1698908442626,0.1013006192599997,0.089057352769,0.0861366056499998
1698908442641,0.1042064392599997,0.087735344769,0.0857999013499998
1698908442656,0.1069414702599997,0.086417276769,0.0849267558499998
1698908442669,0.1094878682599997,0.084608581769,0.0833898998499998
1698908442683,0.1116954042599997,0.0824479477690001,0.0813924358499998
1698908442697,0.1137249222599997,0.0799648667690001,0.0790895178499998
1698908442710,0.1154615002599997,0.0771591917690001,0.0763570018499998
1698908442724,0.1168084222599997,0.0743110267690001,0.0733306588499998
1698908442741,0.1174799903599997,0.0715278857690001,0.0698725378499998
1698908442752,0.1176080923599997,0.0691027757690001,0.0662575068499998
1698908442766,0.1176088274644997,0.0675446437690001,0.0620957508499998
1698908442780,0.1173074804644997,0.0670783390690001,0.0574829298499998
1698908442795,0.1167412947644997,0.0674468785690001,0.0523486658499998
1698908442809,0.1157749398644997,0.0682123307690001,0.0467965748499998
1698908442822,0.1144814438644997,0.0690688320690001,0.0409373288499998
1698908442836,0.1128102908644997,0.0696753591690001,0.0347752918499998
1698908442850,0.1110026178644997,0.0698375488690001,0.0287375318499998
1698908442864,0.1092174418644997,0.0698199826690001,0.0228188138499998
1698908442877,0.1073724898644997,0.0697333706690001,0.0169272188499998
1698908442892,0.1055675008644997,0.0699539238690001,0.0108900348499998
1698908442906,0.1038387598644997,0.0705580511690001,0.0049253768499998
1698908442918,0.1020284788644997,0.0713498333690001,-0.0007797321500001
1698908442931,0.1000449798644997,0.072575327369,-0.0060638291500001
1698908442945,0.0979812578644997,0.0741956013690001,-0.0105337361500001
1698908442960,0.0957341408644997,0.0760034243690001,-0.0146612441500001
1698908442976,0.0934471308644997,0.0775242193690001,-0.0181319591500001
1698908442990,0.0911470998644997,0.0788419503690001,-0.0211760281500001
1698908443004,0.0888326328644997,0.0799886493690001,-0.0236232601500001
1698908443017,0.0864332178644997,0.0807527499690001,-0.0256180721500001
1698908443031,0.0839269498644997,0.0809347246690001,-0.0272184301500001
1698908443044,0.0813105738644997,0.0807110744690001,-0.0285902091500001
1698908443059,0.0787584858644997,0.0803271404690001,-0.0296919741500001
1698908443072,0.0762427028644997,0.0798459368690001,-0.0306213736500001
1698908443087,0.0738693708644997,0.0793248774690001,-0.0311269319500001
1698908443100,0.0716017578644997,0.0791780207690001,-0.0316011361500001
1698908443112,0.0695376648644997,0.0793082900690001,-0.0319563050500001
1698908443127,0.0677513248644997,0.0798218542690001,-0.0320896013500001
1698908443141,0.0662508818644997,0.0803826509690001,-0.0320562367800001
1698908443154,0.0650279488644997,0.0809197935690001,-0.0317825888800001
1698908443169,0.0640973144644997,0.0813323429690001,-0.0312365407800001
1698908443182,0.0636321074644997,0.0819677427690001,-0.0305584567800001
1698908443197,0.0635753953944997,0.0824425200690001,-0.0298733313800001
1698908443211,0.0640552845944997,0.0830865448690001,-0.0289881779800001
1698908443225,0.0650271133944997,0.0835815677690001,-0.0282110538800001
1698908443238,0.0664674493944997,0.0837567744690001,-0.0276013383800001
1698908443252,0.0684769953944997,0.0839158485690001,-0.0269645715800001
1698908443266,0.0712178153944997,0.0835036775690001,-0.0265495063800001
1698908443280,0.0744887713944997,0.0830033112690001,-0.0266209533200001
1698908443296,0.0785154013944997,0.0824250281690001,-0.0270171296200001
1698908443309,0.0830536033944997,0.0815834197690001,-0.0277501692200001
1698908443322,0.0879863043944997,0.0800548527690001,-0.0286232421200001
1698908443335,0.0931245773944997,0.0783046847690001,-0.0296763341200001
1698908443350,0.0984102443944997,0.0767441987690001,-0.0308984311200001
1698908443364,0.1039210653944997,0.0752753187690001,-0.0321851661200001
1698908443378,0.1094523133944997,0.0736535567690001,-0.0335489611200001
1698908443390,0.1147505653944997,0.0719622847690001,-0.0351371381200001
1698908443405,0.1198976973944997,0.0700437017690001,-0.0367296621200001
1698908443419,0.1248736133944997,0.0677131417690001,-0.0384243011200001
1698908443432,0.1296130933944997,0.0649267097690001,-0.0401294421200001
1698908443446,0.1341777133944997,0.0619806997690001,-0.0418109321200001
1698908443462,0.1384358593944997,0.0587893327690001,-0.0432815681200001
1698908443475,0.1422529493944997,0.0560414567690001,-0.0446875841200001
1698908443487,0.1456349423944997,0.0538690477690001,-0.0455703325200001
1698908443502,0.1486995163944997,0.0525066947690001,-0.0460883125200001
1698908443516,0.1515473273944997,0.0524718257090001,-0.0464505121200001
1698908443529,0.1540912283944997,0.0529589732090001,-0.0466529998200001
1698908443543,0.1563940793944997,0.0537559711090001,-0.0465055830200001
1698908443557,0.1583518393944997,0.0544454723090001,-0.0464379661500001
1698908443572,0.1600989833944997,0.0550677293090001,-0.0461638466500001
1698908443585,0.1619512503944997,0.0555482897090001,-0.0456836812500001
1698908443599,0.1637860933944997,0.0560341112090001,-0.0449393468500001
1698908443613,0.1656512603944997,0.0569848345090001,-0.0439170228500001
1698908443628,0.1674173603944997,0.0581372285090001,-0.0426126878500001
1698908443642,0.1692626313944997,0.0596499685090001,-0.0410377748500001
1698908443656,0.1709088503944997,0.0609257125090001,-0.0395670348500001
1698908443669,0.1724639653944997,0.0620160685090001,-0.0378744608500001
1698908443683,0.1738769683944997,0.0631188355090001,-0.0361587048500001
1698908443699,0.1750698223944997,0.0639942973090001,-0.0345069348500001
1698908443710,0.1759594641944997,0.0647496586090001,-0.0329703688500001
1698908443724,0.1763640763944997,0.0651246243090001,-0.0317390708500001
1698908443738,0.1761856587944996,0.0651633372890001,-0.0305554948500001
1698908443753,0.1752505171944997,0.0655186146890001,-0.0292550028500001
1698908443767,0.1736194951944996,0.0661350365890001,-0.0279708188500001
1698908443782,0.1712719701944997,0.0671709745890001,-0.0264877788500001
1698908443793,0.1682529451944996,0.0683193525890001,-0.0250322378500001
1698908443807,0.1646576011944996,0.0698626905890001,-0.0232201268500001
1698908443821,0.1603396781944996,0.0718886395890001,-0.0214345198500001
1698908443836,0.1555197821944997,0.0743825965890001,-0.0193777178500001
1698908443849,0.1503108171944996,0.0768863415890001,-0.0170500878500001
1698908443865,0.1446439191944996,0.0792420365890001,-0.0144897838500001
1698908443878,0.1387785091944997,0.0812993425890001,-0.0116457048500001
1698908443890,0.1326087441944997,0.0830077915890001,-0.0089761398500001
1698908443906,0.1262076621944997,0.0845252705890001,-0.0063660988500001
1698908443919,0.1195787161944997,0.0860211325890001,-0.0037527738500001
1698908443933,0.1127434581944997,0.0876747465890001,-0.0014625428500001
1698908443946,0.1055732151944996,0.0895271415890001,0.0005011261499998
1698908443961,0.0982257601944996,0.0907584045890001,0.0023986171499998
1698908443975,0.0905771571944996,0.0914462969890001,0.0040206461499998
1698908443988,0.0826972181944996,0.0918539927890001,0.0056553841499998
1698908444003,0.0745965671944996,0.0922607705890001,0.0072305151499998
1698908444015,0.0661604971944996,0.0925711533890001,0.0083382031499998
1698908444029,0.0577137251944996,0.0931671250890001,0.0094010541499998
1698908444044,0.0493089321944996,0.0934186232890001,0.0106638421499998
1698908444059,0.0409834801944996,0.0936293481890001,0.0118364051499998
1698908444074,0.0330593641944996,0.0935915781690001,0.0132528601499998
1698908444087,0.0253904981944996,0.0932733107690001,0.0145166951499998
1698908444100,0.0181231311944996,0.0929026413690001,0.0157769461499998
1698908444113,0.0110909281944996,0.0927171298690001,0.0170740421499998
1698908444127,0.0042698191944996,0.0924692712690001,0.0184903371499998
1698908444141,-0.0022752958055003,0.0920788502690001,0.0200229581499998
1698908444156,-0.0087601388055003,0.0916308412690001,0.0214882901499998
1698908444170,-0.0151352718055003,0.0910957420690001,0.0231520941499998
1698908444183,-0.0215807728055003,0.0903827504690001,0.0251276781499998
1698908444197,-0.0282942118055003,0.0891376104690001,0.0272773881499998
1698908444211,-0.0349929148055003,0.0878251864690001,0.0296622811499998
1698908444224,-0.0416567418055003,0.0863822184690001,0.0322407841499998
1698908444238,-0.0483122068055003,0.0850227254690001,0.0347188111499998
1698908444252,-0.0548986778055003,0.0834546414690001,0.0372771781499998
1698908444269,-0.0615372418055003,0.0815063654690001,0.0399157891499998
1698908444280,-0.0681280808055003,0.0793847414690001,0.0427199011499998
1698908444295,-0.0746387298055003,0.0773399624690001,0.0455252041499998
1698908444309,-0.0809307778055003,0.0757579094690001,0.0484168701499998
1698908444324,-0.0872040838055003,0.0741404314690001,0.0513793411499998
1698908444336,-0.0934303778055003,0.0730624804690001,0.0540162031499998
1698908444351,-0.0995556808055003,0.0724819326690001,0.0565062411499998
1698908444363,-0.1055718348055003,0.0719813251690001,0.0587599411499998
1698908444377,-0.1114091058055003,0.0715905838690001,0.0605962291499998
1698908444392,-0.1171015038055003,0.0711591045690001,0.0623358121499998
1698908444406,-0.1223936458055003,0.0704809358690001,0.0640495971499998
1698908444418,-0.1271628178055003,0.0698125645690001,0.0659843841499998
1698908444433,-0.1315249458055003,0.0688436033690001,0.0678880681499998
1698908444445,-0.1354788498055003,0.0684328688690001,0.0697021131499998
1698908444460,-0.1390973748055003,0.0683897620190001,0.0716158561499998
1698908444474,-0.1424607458055003,0.0685709833190001,0.0737943281499998
1698908444488,-0.1455779058055003,0.0688919972190001,0.0763384911499998
1698908444502,-0.1484097938055003,0.0694472342190001,0.0792522241499998
1698908444516,-0.1510047948055003,0.0702875421190001,0.0824340451499998
1698908444530,-0.1534393758055003,0.0707980084190001,0.0858901891499998
1698908444543,-0.1557694788055003,0.0712120617190001,0.0892990391499998
1698908444559,-0.1579531258055003,0.0711921357290001,0.0929449371499998
1698908444573,-0.1600225488055003,0.0708920610290001,0.0967406531499998
1698908444586,-0.1619158238055003,0.0704293167290001,0.1005138141499998
1698908444599,-0.1637112338055003,0.0701442492290001,0.1042384381499998
1698908444613,-0.1652478748055003,0.0700069294290001,0.1080011511499998
1698908444628,-0.1665040648055003,0.0699183586490001,0.1117840931499998
1698908444642,-0.1676314338055003,0.0697131652490001,0.1155796751499998
1698908444655,-0.1686336348055003,0.0689468052490001,0.1194838211499998
1698908444669,-0.1694975705055003,0.0680637949490001,0.1236733991499998
1698908444683,-0.1702954429055003,0.0669890449490001,0.1276916001499998
1698908444697,-0.1708214058055003,0.0663115103490001,0.1316995531499998
1698908444710,-0.1710594202055003,0.0660786351490001,0.1357938511499998
1698908444723,-0.1711549720955003,0.0662109815490001,0.1398011781499998
1698908444737,-0.1710668538455003,0.0666429334490001,0.1436569581499998
1698908444752,-0.1708780717455003,0.0673172923490001,0.1472685441499998
1698908444767,-0.1704539104455003,0.0678643729490001,0.1506661851499998
1698908444781,-0.1698061645455003,0.0680216726490001,0.1538164461499998
1698908444794,-0.1687023675455003,0.0681614630490002,0.1568561951499998
1698908444808,-0.1672851165455003,0.0677349584490002,0.1595688161499998
1698908444821,-0.1655164895455003,0.0672765795490002,0.1620575831499998
1698908444835,-0.1634707505455003,0.0664361300490001,0.1640956391499998
1698908444849,-0.1610912145455003,0.0654241480490002,0.1658011101499998
1698908444863,-0.1583071835455003,0.0643999790490001,0.1671082811499998
1698908444877,-0.1551228535455003,0.0633218380490001,0.1680884071499998
1698908444892,-0.1514812355455003,0.0624436959490001,0.1686144090499998
1698908444908,-0.1473528805455003,0.0616733921490001,0.1689861039499998
1698908444919,-0.1429314275455003,0.0604551371490001,0.1691866986499998
1698908444934,-0.1381601425455003,0.0591114851490001,0.1694964865499998
1698908444947,-0.1328817555455003,0.0575035901490001,0.1695365856899998
1698908444960,-0.1269548885455003,0.0563691041490001,0.1694700840199998
1698908444975,-0.1204731995455003,0.0557919522490001,0.1688704023199998
1698908444989,-0.1136057895455003,0.0554086336490001,0.1682512111199998
1698908445002,-0.1064866485455003,0.0547363541490001,0.1675214312199998
1698908445016,-0.0991418065455003,0.0543662115490001,0.1668280288199998
1698908445031,-0.0916611505455003,0.0543602572550001,0.1660830624199998
1698908445043,-0.0839763155455003,0.0545314207550001,0.1652778464199998
1698908445057,-0.0760257515455003,0.0545906361050001,0.1646794601199998
1698908445071,-0.0679746945455003,0.0538028221050001,0.1641102183199998
1698908445085,-0.0598803495455003,0.0527122071050001,0.1636812474199998
1698908445100,-0.0518100995455003,0.0509912871050001,0.1631022638199998
1698908445113,-0.0438042475455003,0.0488021841050001,0.1626367686199998
1698908445127,-0.0359350835455003,0.0466389861050001,0.1620052290199998
1698908445142,-0.0282285795455003,0.0443382541050002,0.1616343696199998
1698908445155,-0.0206168215455003,0.0421333901050001,0.1615801638499998
1698908445169,-0.0131345645455003,0.0401657551050001,0.1618677554499998
1698908445183,-0.0058726145455003,0.0386128181050001,0.1622245334499998
1698908445196,0.0014553164544996,0.0376454260050002,0.1626833616499998
1698908445210,0.0088148504544996,0.0373932543050002,0.1630773604499998
1698908445225,0.0164182784544996,0.0375411899050002,0.1631014910199998
1698908445239,0.0241530944544996,0.0379744228050002,0.1628843530199998
1698908445252,0.0320298994544996,0.0385779716050002,0.1621392080199998
1698908445267,0.0401383584544996,0.0395290664050002,0.1608828510199998
1698908445280,0.0486985914544996,0.0408476704050002,0.1592006530199998
1698908445294,0.0578138624544996,0.0423024304050002,0.1571200780199998
1698908445310,0.0675341834544996,0.0441603864050002,0.1540945680199998
1698908445321,0.0781681534544996,0.0460373374050002,0.1502064600199998
1698908445336,0.0898248034544996,0.0473882984050002,0.1455116250199998
1698908445348,0.1027496434544996,0.0481754237050002,0.1401262080199998
1698908445364,0.1168881934544996,0.0482397991050001,0.1341531000199998
1698908445377,0.1323386034544996,0.0471476801050001,0.1278097730199998
1698908445392,0.1492990134544996,0.0449663311050001,0.1212466490199997
1698908445405,0.1677534134544996,0.0420105691050001,0.1146741970199997
1698908445419,0.1878395934544997,0.0390313601050001,0.1080084090199997
1698908445432,0.2096569134544997,0.0361233981050001,0.1013555990199997
1698908445446,0.2331899534544997,0.0335448751050001,0.0948959490199997
1698908445460,0.2584998934544997,0.0317162681050001,0.0885974970199997
1698908445475,0.2855146434544997,0.0300244011050001,0.0824679260199997
1698908445488,0.3144321134544997,0.0285861361050001,0.0768910970199997
1698908445502,0.3450475234544997,0.0269706691050001,0.0715072120199997
1698908445516,0.3776283234544997,0.0251846051050001,0.0663638570199997
1698908445531,0.4122465634544997,0.0229183231050001,0.0612808640199997
1698908445546,0.4490416034544997,0.0206647611050001,0.0562282580199997
1698908445558,0.4878891634544997,0.0183594981050001,0.0509661050199997
1698908445572,0.5289105134544997,0.0162320941050001,0.0452515330199997
1698908445585,0.5722510134544997,0.0142321641050001,0.0389197730199997
1698908445599,0.6180110634544997,0.0121210521050001,0.0319590200199997
1698908445614,0.6662619834544997,0.0098401961050001,0.0237742610199997
1698908445628,0.7172323834544997,0.0070190671050001,0.0148215600199997
1698908445642,0.7709634934544997,0.0039599851050001,0.0052497250199997
1698908445655,0.8278545434544997,0.0006581251050001,-0.0048409249800002
1698908445670,0.8881400534544998,-0.0026506638949998,-0.0155990749800002
1698908445684,0.9521988134544996,-0.0055290428949998,-0.0270673849800002
1698908445697,1.0199955534544998,-0.0085064088949998,-0.0392520949800002
1698908445711,1.0915846334545,-0.0116417988949998,-0.0518553649800002
1698908445724,1.1675459634544998,-0.0151818418949998,-0.0645911549800002
1698908445739,1.2480171634545,-0.0191940318949998,-0.0774700249800002
1698908445754,1.3328936734544998,-0.0235387448949998,-0.0901052749800002
1698908445767,1.4222586534545,-0.0279675848949998,-0.1026826949800002
1698908445781,1.5161999534545,-0.0325095008949998,-0.1151435049800002
1698908445796,1.6146415034545,-0.0370046818949998,-0.1275553149800002
1698908445808,1.7176146034545,-0.0411990928949998,-0.1401974449800002
1698908445821,1.8252864034545,-0.0453223008949998,-0.1533785749800002
1698908445836,1.9376253034545,-0.0492301948949998,-0.1668911449800002
1698908445849,2.0549217034545,-0.0524741948949998,-0.1812255749800002
1698908445864,2.1768981034545,-0.0556125378949998,-0.1965595649800002
1698908445879,2.3037109034545,-0.0590060038949998,-0.2127768449800002
1698908445892,2.4354134034545,-0.0625925178949998,-0.2298263949800002
1698908445905,2.5717533034544995,-0.0665548808949998,-0.2475839749800002
1698908445918,2.7127204034545,-0.0708493068949998,-0.2656108949800002
1698908445932,2.8583197034545,-0.0754912078949998,-0.2839021049800002
1698908445947,3.0086336034545,-0.0809421388949998,-0.3024244049800002
1698908445965,3.1636807034545,-0.0865257188949998,-0.3214637349800002
1698908445975,3.3230147034545,-0.0919767088949998,-0.3409012049800002
1698908445988,3.4870143034545,-0.0970302738949998,-0.3609455749800002
1698908446002,3.6554339034545,-0.1018144988949998,-0.3819474149800002
1698908446016,3.8283532034544994,-0.1066710508949998,-0.4039524349800002
1698908446030,4.005653203454499,-0.1121073478949998,-0.4268176649800002
1698908446044,4.186803203454499,-0.1181834288949998,-0.4506995749800002
1698908446059,4.371805903454499,-0.1251342838949998,-0.4755540449800002
1698908446072,4.560960103454499,-0.1320868758949998,-0.5016863849800003
1698908446086,4.753894503454499,-0.1389708978949998,-0.5288787049800003
1698908446100,4.950563803454499,-0.1461323108949998,-0.5573886549800003
1698908446113,5.150552103454499,-0.1543757128949998,-0.5871900749800003
1698908446127,5.3536842034545,-0.1627533248949998,-0.6183722749800004
1698908446141,5.5601690034545,-0.1712050178949998,-0.6513360249800003
1698908446157,5.7702378034545,-0.1799737948949998,-0.6854904349800003
1698908446170,5.9831669034545,-0.1902098948949998,-0.7206438349800003
1698908446184,6.1982774034545,-0.2031405348949998,-0.7567191549800003
1698908446198,6.4149359034545,-0.2199264048949998,-0.7936484649800003
1698908446212,6.6326537034545,-0.2406935748949998,-0.8316257049800003
1698908446224,6.8510375034545,-0.2647518348949998,-0.8711729549800004
1698908446238,7.0698121034545,-0.2918962848949998,-0.9126198349800004
1698908446253,7.2891108034545,-0.3215025548949998,-0.9564416349800005
1698908446267,7.5090064034545,-0.3518476848949998,-1.0034063649800002
1698908446281,7.7300241034545,-0.3807511448949998,-1.0537012549800002
1698908446293,7.951981003454501,-0.4073317448949998,-1.1080434049800003
1698908446307,8.1747941034545,-0.4317474748949998,-1.1664869849800004
1698908446321,8.3982246034545,-0.4544469548949998,-1.2295318649800004
1698908446336,8.6222220034545,-0.4747105548949998,-1.2973854249800003
1698908446349,8.846594203454499,-0.4905559948949998,-1.3711478849800005
1698908446363,9.0709985034545,-0.5010284548949998,-1.4509694449800006
1698908446377,9.295465703454498,-0.5058545888949998,-1.537687694980001
1698908446392,9.519770603454498,-0.5049033928949997,-1.6318424149800006
1698908446406,9.743728803454498,-0.4987963128949997,-1.7333398149800006
1698908446420,9.9668785034545,-0.4893298868949998,-1.8420776149800004
1698908446433,10.1897590034545,-0.4779366868949998,-1.9580280149800005
1698908446446,10.4129561034545,-0.4639196068949998,-2.081615014980001
1698908446462,10.6367690034545,-0.4485092268949998,-2.2131479149800004
1698908446476,10.8612890034545,-0.4336944268949997,-2.35226811498
1698908446489,11.0864891034545,-0.4220477668949998,-2.49822441498
1698908446503,11.3123472034545,-0.4158081398949997,-2.65084491498
1698908446519,11.5388205034545,-0.4162539378949997,-2.81025621498
1698908446531,11.7656779034545,-0.4233115228949997,-2.97641071498
1698908446544,11.9931598034545,-0.4367928228949997,-3.14945041498
1698908446559,12.2214284034545,-0.4562525228949997,-3.32963391498
1698908446573,12.4505762034545,-0.4803837128949997,-3.51622641498
1698908446588,12.6805609034545,-0.5093050728949997,-3.70971211498
1698908446602,12.9111282034545,-0.5435195528949998,-3.90957631498
1698908446614,13.141926703454502,-0.5839578628949997,-4.11540261498
1698908446628,13.3732848034545,-0.6302380928949998,-4.32748501498
1698908446643,13.606421603454502,-0.6789008628949997,-4.54727461498
1698908446655,13.842202203454502,-0.7263773628949998,-4.7753312149800005
1698908446669,14.0810791034545,-0.7717719328949998,-5.011857814980001
1698908446684,14.3230076034545,-0.8154489328949998,-5.256275914980001
1698908446699,14.5679716034545,-0.8572672128949997,-5.508737214980001
1698908446711,14.8164844034545,-0.8957453128949997,-5.769011614980001
1698908446725,15.069423803454502,-0.9288803928949996,-6.037855514980001
1698908446740,15.327443403454502,-0.9562400928949996,-6.316024914980002
1698908446752,15.591685503454505,-0.9773412228949996,-6.604510914980001
1698908446766,15.861973703454504,-0.9936130428949996,-6.902884314980001
1698908446782,16.139576303454504,-1.0049818828949997,-7.212985714980001
1698908446796,16.424612703454503,-1.0133473178949997,-7.535066114980001
1698908446809,16.716769103454503,-1.0202468898949997,-7.868785914980001
1698908446822,17.016351003454503,-1.0272472108949997,-8.21384501498
1698908446836,17.323856703454503,-1.0352248748949997,-8.57014251498
1698908446850,17.640184903454504,-1.0448219318949996,-8.93794331498
1698908446865,17.965451303454504,-1.0572793218949996,-9.31662521498
1698908446879,18.298968503454503,-1.0734832018949996,-9.70568101498
1698908446894,18.640727703454505,-1.0944162418949996,-10.10506091498
1698908446907,18.990443703454503,-1.1210476718949995,-10.51458701498
1698908446922,19.3477039034545,-1.1527409318949997,-10.93393981498
1698908446934,19.712403403454505,-1.1893602918949997,-11.36311481498
1698908446949,20.084026503454503,-1.2312462818949994,-11.80203531498
1698908446963,20.462798003454505,-1.2798291118949994,-12.25053411498
1698908446976,20.8489263034545,-1.3339767118949994,-12.70840181498
1698908446989,21.2440056034545,-1.3872219318949994,-13.17581381498
1698908447005,21.6499965034545,-1.4291105818949994,-13.65403681498
1698908447016,22.0681985034545,-1.4514677318949991,-14.14419681498
1698908447032,22.4977243034545,-1.4540688728949993,-14.64585751498
1698908447044,22.937281703454502,-1.4432381828949994,-15.15743191498
1698908447057,23.384913203454506,-1.423779722894999,-15.67613451498
1698908447072,23.8387872034545,-1.3964852928949991,-16.19967581498
1698908447086,24.2958117034545,-1.3631038328949994,-16.72569521498
1698908447102,24.7520874034545,-1.3282878628949994,-17.25127411498
1698908447114,25.2038432034545,-1.2982407328949994,-17.77251871498
1698908447129,25.6488629034545,-1.2765564728949994,-18.28581421498
1698908447143,26.0886354034545,-1.2587082328949994,-18.78927941498
1698908447155,26.5244695034545,-1.2382098628949991,-19.28253531498
1698908447170,26.9566374034545,-1.2123729828949994,-19.765730814980003
1698908447183,27.3836058034545,-1.1851834828949994,-20.238324214980004
1698908447197,27.8038365034545,-1.1623550928949995,-20.70047121498001
1698908447211,28.2167240034545,-1.1458027828949997,-21.15125381498001
1698908447227,28.622773103454502,-1.1315210428949996,-21.590962614980008
1698908447241,29.0232450034545,-1.1137056028949996,-22.019790114980008
1698908447254,29.4190779034545,-1.0883038928949995,-22.438774514980008
1698908447267,29.8112198034545,-1.0529015328949998,-22.84964161498001
1698908447281,30.2006659034545,-1.0056921128949998,-23.25280541498001
1698908447294,30.5885828034545,-0.9461185528949998,-23.649685614980008
1698908447307,30.9759106034545,-0.8775837828949998,-24.04096681498001
1698908447324,31.362767503454503,-0.8049748328949998,-24.42679821498001
1698908447336,31.7493344034545,-0.7331414128949998,-24.80771561498001
1698908447350,32.1363521034545,-0.6649267628949997,-25.184862614980013
1698908447364,32.524530203454496,-0.6012563028949998,-25.55943321498001
1698908447378,32.915211103454496,-0.5419654428949998,-25.93240081498001
1698908447391,33.3090230034545,-0.4876321128949998,-26.30425781498001
1698908447405,33.7069782034545,-0.4399248528949998,-26.67512551498001
1698908447419,34.110409303454496,-0.4007069528949998,-27.04500161498001
1698908447433,34.5208360034545,-0.3707123928949998,-27.41346681498001
1698908447448,34.9391364034545,-0.3504084528949998,-27.78052391498001
1698908447462,35.3667665034545,-0.3400980528949998,-28.146493714980007
1698908447475,35.804256503454496,-0.3386627358949998,-28.511948614980007
1698908447489,36.252159103454495,-0.3455322248949998,-28.877554814980005
1698908447503,36.711188603454495,-0.3610296048949998,-29.243388414980004
1698908447516,37.18231520345449,-0.3859004048949997,-29.609363014980005
1698908447530,37.66497300345449,-0.4204424748949997,-29.974693014980005
1698908447544,38.15955040345449,-0.4666989248949997,-30.33906391498001
1698908447560,38.66623730345449,-0.5219145748949997,-30.702940514980007
1698908447573,39.18613210345449,-0.5818512848949997,-31.067296714980007
1698908447586,39.71860060345449,-0.6435028148949997,-31.432485814980005
1698908447601,40.26476240345449,-0.7084156948949998,-31.79788121498001
1698908447615,40.82385480345449,-0.7780120048949998,-32.163066014980004
1698908447627,41.39539970345449,-0.8519665548949997,-32.52797311498001
1698908447641,41.979221203454486,-0.9281147248949996,-32.893349214980006
1698908447656,42.57482160345449,-1.0056278948949997,-33.25986701498
1698908447669,43.18198510345449,-1.0849262748949997,-33.627601414980006
1698908447683,43.800060203454485,-1.1664769948949998,-33.996024314980005
1698908447696,44.429743803454485,-1.248937234895,-34.36535041498001
1698908447710,45.070569503454486,-1.3302220648949998,-34.735729814980004
1698908447727,45.72276850345449,-1.408537654895,-35.10768641498
1698908447740,46.38570090345449,-1.483655434895,-35.48080041498
1698908447753,47.05690900345449,-1.557549294895,-35.854417414980006
1698908447766,47.735431803454496,-1.631818414895,-36.22707391498
1698908447781,48.420596403454496,-1.703552484895,-36.59823171498
1698908447795,49.111624603454494,-1.767962724895,-36.96826541498
1698908447810,49.809600303454495,-1.814459454895,-37.338630014980005
1698908447821,50.51554700345449,-1.831381504895,-37.71079641498
1698908447835,51.22873170345449,-1.817632514895,-38.08450661498
1698908447850,51.94855850345449,-1.7781436248950002,-38.45956201498
1698908447864,52.671882203454494,-1.7194147848950003,-38.83474381498
1698908447878,53.3954595034545,-1.6484743648950002,-39.21021461498
1698908447890,54.1167979034545,-1.5671790748950003,-39.58691441498
1698908447905,54.833200803454496,-1.4744233748950002,-39.96609051498
1698908447919,55.541307903454495,-1.3766506748950005,-40.347177114980006
1698908447934,56.23782590345449,-1.2837621648950002,-40.729225814980005
1698908447947,56.91955310345449,-1.204332774895,-41.11194081498
1698908447961,57.58515500345449,-1.141393764895,-41.49552301498
1698908447977,58.23569740345449,-1.091655514895,-41.88110331498
1698908447991,58.87253090345449,-1.049339104895,-42.268713314980005
1698908448004,59.49682130345449,-1.010496504895,-42.65790671498001
1698908448016,60.11010580345449,-0.972863734895,-43.047012614980005
1698908448030,60.713287203454485,-0.935371354895,-43.43412031498001
1698908448045,61.30719690345448,-0.8954836648950001,-43.81810911498
1698908448060,61.89323080345448,-0.851611504895,-44.19787831498
1698908448073,62.47307910345448,-0.799749224895,-44.573857514980006
1698908448087,63.04798400345448,-0.736829304895,-44.947076014980006
1698908448101,63.61789810345448,-0.665232604895,-45.31829881498
1698908448114,64.18195600345447,-0.591099704895,-45.68839601498
1698908448129,64.73863660345447,-0.520581364895,-46.05866581498
1698908448143,65.28854570345446,-0.4573661148949999,-46.43020931498
1698908448157,65.83262800345446,-0.4039665448949999,-46.804764414980006
1698908448171,66.37235030345445,-0.3621016948949999,-47.183303114980006
1698908448185,66.90893300345445,-0.3324799848949999,-47.566316814980006
1698908448199,67.44315640345445,-0.3171711848949999,-47.95482871498
1698908448213,67.97530940345445,-0.3174994830949999,-48.34911871498
1698908448226,68.50535190345444,-0.3341452930949999,-48.75000601498
1698908448239,69.03350910345443,-0.3649600930949999,-49.15832701498
1698908448251,69.56044910345443,-0.4066659930949999,-49.57446711498
1698908448266,70.08683270345443,-0.4561083830949999,-49.99928481498
1698908448280,70.61287090345444,-0.5118189930949999,-50.43292641498
1698908448296,71.13835400345444,-0.5736619930949999,-50.875019614980005
1698908448310,71.66235670345444,-0.6421059230949999,-51.32570271498
1698908448321,72.18387180345444,-0.715068023095,-51.783996614980005
1698908448336,72.70255860345443,-0.7898754030949999,-52.25063481498
1698908448349,73.21803140345443,-0.8646064230949999,-52.724618214980005
1698908448366,73.73113490345443,-0.938371543095,-53.205711814980006
1698908448377,74.24327290345443,-1.010208523095,-53.69382201498001
1698908448392,74.75502220345443,-1.080843683095,-54.18763601498001
1698908448406,75.26735440345443,-1.151281123095,-54.68888861498001
1698908448420,75.78092840345444,-1.221337303095,-55.19791911498001
1698908448434,76.29670220345444,-1.290262683095,-55.71642791498001
1698908448447,76.81545880345445,-1.357912503095,-56.24446211498001
1698908448460,77.33802910345445,-1.424670833095,-56.78238761498001
1698908448475,77.86501630345444,-1.491039753095,-57.33093821498001
1698908448489,78.39660430345444,-1.556536073095,-57.88980311498001
1698908448503,78.93338820345444,-1.618452823095,-58.45995761498001
1698908448517,79.47501370345444,-1.674491653095,-59.041915114980014
1698908448533,80.02147100345444,-1.723248703095,-59.63619491498002
1698908448544,80.57181300345444,-1.767223913095,-60.240511014980015
1698908448558,81.12573360345444,-1.808358783095,-60.854023114980016
1698908448572,81.68315440345444,-1.845745233095,-61.47597111498002
1698908448586,82.24508450345444,-1.873083313095,-62.10476451498002
1698908448600,82.81357890345444,-1.876029968095,-62.740932414980016
1698908448613,83.39015890345445,-1.839348838095,-63.38358171498002
1698908448626,83.97323100345444,-1.7684216080950002,-64.03012211498002
1698908448641,84.56293060345445,-1.6678385080950002,-64.68055461498001
1698908448657,85.15760650345445,-1.5458187080950003,-65.33311891498
1698908448671,85.75618220345444,-1.4125458080950004,-65.98565161498
1698908448683,86.35586880345444,-1.2805363080950003,-66.63493351498
1698908448697,86.95296740345444,-1.1639290080950002,-67.27675311498001
1698908448711,87.54587950345444,-1.0701672980950003,-67.90714701498001
1698908448726,88.13459900345444,-0.9978250580950004,-68.52367411498001
1698908448741,88.71968900345443,-0.9370516880950004,-69.12477901498
1698908448753,89.30224450345443,-0.8754869880950003,-69.71278921498
1698908448764,89.88266690345444,-0.8074148680950003,-70.29089341498
1698908448778,90.45992040345445,-0.7322449180950003,-70.85891731498
1698908448794,91.03257390345443,-0.6562869380950003,-71.41712711498
1698908448808,91.60099060345443,-0.5803569280950003,-71.96694601498001
1698908448822,92.16594250345445,-0.5005010180950002,-72.51078881498
1698908448835,92.72835520345444,-0.4154535280950002,-73.05033491498
1698908448850,93.28755410345444,-0.3291860080950002,-73.58560661498
1698908448864,93.84299480345445,-0.2471816680950002,-74.11535431498
1698908448877,94.39472270345443,-0.1724961480950002,-74.63829431498
1698908448892,94.94314900345444,-0.1062227380950002,-75.15246441498
1698908448906,95.48948120345445,-0.0466392880950002,-75.65795531498
1698908448921,96.03481310345444,0.0074252319049997,-76.15514131498
1698908448935,96.58038570345444,0.0572949019049997,-76.64565941498
1698908448945,97.12761240345442,0.1020081419049997,-77.12991091498
1698908448960,97.67776540345442,0.1402329819049997,-77.60841931498
1698908448975,98.2322991034544,0.1697848019049997,-78.08132081498
1698908448990,98.7921745034544,0.1883014919049997,-78.54885371498
1698908449004,99.3585921034544,0.1954437039049998,-79.01120821498
1698908449016,99.9327001034544,0.1904752489049997,-79.46868561498
1698908449031,100.5151263034544,0.1713278189049998,-79.92080491498001
1698908449045,101.1065645034544,0.1381063889049998,-80.36808701498
1698908449059,101.7073355034544,0.0920931389049997,-80.81066761498
1698908449072,102.3181855034544,0.0353869189049997,-81.24862371498
1698908449085,102.9386044034544,-0.0299967810950002,-81.68225961498
1698908449100,103.5684362034544,-0.1036902910950002,-82.11152181498
1698908449114,104.2068546034544,-0.1863169610950002,-82.53697731497999
1698908449128,104.8546046034544,-0.2751598510950002,-82.95971111498
1698908449142,105.5117938034544,-0.3669277310950002,-83.37994651497999
1698908449156,106.1789236034544,-0.4593546210950002,-83.79896241498
1698908449169,106.8556361034544,-0.5516993910950002,-84.21714101498
1698908449182,107.5412999034544,-0.6451144210950002,-84.63493511498
1698908449197,108.2348885034544,-0.7397438810950001,-85.05234611498
1698908449211,108.9368032034544,-0.8333328810950001,-85.46887801497999
1698908449227,109.6472288034544,-0.925123271095,-85.88473121498
1698908449240,110.3658967034544,-1.0149045310950002,-86.30060881498
1698908449255,111.0925294034544,-1.1012709210950002,-86.71777551497999
1698908449268,111.8284634034544,-1.180873661095,-87.13739391498
1698908449280,112.5729656034544,-1.251343341095,-87.55997981498
1698908449294,113.3257417034544,-1.311311961095,-87.98562821498
1698908449308,114.0855777034544,-1.362396681095,-88.41354281497999
1698908449324,114.8505207034544,-1.4065336110950002,-88.84221301497999
1698908449336,115.6178799034544,-1.4459465310950002,-89.27067551497998
1698908449349,116.3872093034544,-1.477499341095,-89.69904001497999
1698908449364,117.1598606034544,-1.489383651095,-90.12881891498
1698908449378,117.9371626034544,-1.466206271095,-90.56219151498
1698908449391,118.71944800345442,-1.4025474510950002,-91.00004351498
1698908449406,119.50335730345442,-1.3104300910950002,-91.44120971498
1698908449421,120.28505800345442,-1.2097126910950002,-91.88353981498
1698908449433,121.06104900345444,-1.1186344810950002,-92.32615811498
1698908449446,121.83027910345444,-1.0491423410950005,-92.76923881498
1698908449461,122.59548940345444,-1.0008612710950002,-93.21797081498
1698908449476,123.35488720345444,-0.9639442110950004,-93.67389771498
1698908449489,124.10886180345445,-0.9303791510950002,-94.13823331498
1698908449503,124.85597010345444,-0.8963238710950002,-94.61074001498
1698908449515,125.59339790345444,-0.8606116410950002,-95.09215521498
1698908449532,126.31887470345444,-0.8213279510950002,-95.58352351498
1698908449544,127.03083480345444,-0.7748650810950002,-96.08387561498
1698908449558,127.73086810345444,-0.7210720510950002,-96.59053421498
1698908449570,128.41934600345445,-0.6571014410950001,-97.10303081498
1698908449585,129.09786540345445,-0.5779386010950002,-97.61970131498
1698908449598,129.76943030345444,-0.4850998910950002,-98.13922531498
1698908449612,130.43528900345444,-0.3870553710950002,-98.66043371498002
1698908449626,131.09541570345445,-0.2958937610950002,-99.18288891498
1698908449641,131.75092240345444,-0.2203428110950002,-99.70723411498
1698908449657,132.40240080345444,-0.1663990010950002,-100.23379701498
1698908449669,133.05138670345443,-0.1354769710950002,-100.76302171498
1698908449682,133.69896490345445,-0.1247242510950002,-101.29506551498
1698908449697,134.34591780345443,-0.1342981080950002,-101.83110471498
1698908449711,134.99266680345443,-0.1646442880950002,-102.37214521498
1698908449724,135.63951370345447,-0.2110570680950002,-102.91774781498
1698908449739,136.28699910345446,-0.2743955380950001,-103.46869301498
1698908449752,136.93516110345448,-0.3501945980950002,-104.02534981498
1698908449764,137.58389010345448,-0.4351273980950002,-104.58805721498
1698908449778,138.23273920345449,-0.5267615080950002,-105.15720961498
1698908449793,138.8815389034545,-0.6230573280950003,-105.73337971498
1698908449807,139.5303576034545,-0.7223232880950002,-106.31602091498
1698908449822,140.1790708034545,-0.8228390880950003,-106.90559461498
1698908449833,140.82758220345448,-0.9231424880950004,-107.50187881498
1698908449848,141.4763077034545,-1.0226486380950004,-108.10476691498
1698908449863,142.1261162034545,-1.1206735380950004,-108.71482971497998
1698908449876,142.77792090345451,-1.2160139980950004,-109.33239551497998
1698908449890,143.43223040345453,-1.3070206980950003,-109.95754401497996
1698908449904,144.08840380345453,-1.3941219980950006,-110.59109291497997
1698908449919,144.74620240345453,-1.4786663080950009,-111.23235761497996
1698908449933,145.40497840345452,-1.5608322480950008,-111.88176421497997
1698908449946,146.06498390345453,-1.6404491280950009,-112.53809381497996
1698908449961,146.72640220345454,-1.7166771980950006,-113.20164581497995
1698908449974,147.38864890345454,-1.790181338095001,-113.87169991497996
1698908449988,148.05062510345454,-1.8624567880950007,-114.54763931497996
1698908450001,148.71148430345454,-1.9336788180950009,-115.22802851497995
1698908450015,149.37070810345455,-2.0016740080950006,-115.91180761497996
1698908450029,150.03014590345455,-2.0578257680950007,-116.59886881497997
1698908450043,150.69289370345456,-2.0839551780950005,-117.28965971497996
1698908450058,151.36356890345456,-2.0571033680950004,-117.98629181497996
1698908450070,152.04135540345456,-1.9789166580950004,-118.68712601497997
1698908450086,152.72361580345455,-1.8679397580950003,-119.38848811497996
1698908450099,153.40682070345454,-1.7457057580950004,-120.08756221497995
1698908450113,154.08708100345453,-1.6292338580950003,-120.78084351497996
1698908450127,154.76324470345452,-1.5290368580950002,-121.46456541497996
1698908450143,155.4355416034545,-1.4474435480950003,-122.13405621497996
1698908450156,156.10471390345452,-1.3765859180950004,-122.78670211497996
1698908450169,156.7716222034545,-1.3075748580950004,-123.42103921497996
1698908450183,157.43646150345452,-1.2328014680950004,-124.03730101497996
1698908450197,158.0994615034545,-1.1477871980950003,-124.63569731497996
1698908450211,158.75904130345452,-1.0542226980950002,-125.21575061497995
1698908450224,159.41454720345453,-0.9542714380950004,-125.77831181497996
1698908450238,160.06533740345452,-0.8457722380950002,-126.32509531497998
1698908450253,160.71173300345453,-0.7273516380950003,-126.86042191497998
1698908450267,161.35375330345454,-0.6010190380950002,-127.38607361497998
1698908450280,161.99174880345453,-0.4727312380950002,-127.90403711497996
1698908450294,162.62604960345453,-0.3476485380950002,-128.41500081497998
1698908450308,163.25769640345453,-0.2303740380950002,-128.92002111498
1698908450321,163.88785030345454,-0.1230143380950002,-129.41975931497998
1698908450335,164.51816970345453,-0.0281507180950002,-129.91509701497998
1698908450350,165.15073980345454,0.0521532819049997,-130.40679501498
1698908450364,165.78707490345454,0.1175232019049997,-130.89581611498
1698908450377,166.42828530345454,0.1674775119049997,-131.38235401498
1698908450392,167.07514700345453,0.2005642319049997,-131.86662951498
1698908450404,167.72874440345453,0.2157554519049997,-132.34878711497998
1698908450418,168.38972830345452,0.2116651469049998,-132.82860141497997
1698908450432,169.05892650345453,0.1873996669049998,-133.30654771497998
1698908450446,169.73641600345454,0.1436886169049998,-133.78263881497998
1698908450462,170.42299230345455,0.0792865969049997,-134.25697401498
1698908450474,171.12034820345454,-0.0035563230950002,-134.72960341497998
1698908450488,171.82919990345454,-0.0974571330950002,-135.20195471498
1698908450502,172.55265250345454,-0.1944210930950002,-135.67570911497998
1698908450516,173.29079250345453,-0.2882967930950002,-136.15186601498
1698908450531,174.04152910345454,-0.3813000930950002,-136.62990321497998
1698908450545,174.80258590345454,-0.4787046130950002,-137.10871881497997
1698908450557,175.57253460345453,-0.5824066130950002,-137.58768071497997
1698908450571,176.35182900345453,-0.6891858130950002,-138.06701631497998
1698908450586,177.14101540345453,-0.7931614130950002,-138.54734351498
1698908450599,177.94117930345453,-0.8902106230950002,-139.02977121497997
1698908450613,178.75175450345452,-0.9794098330950002,-139.51492061498
1698908450629,179.57291710345453,-1.0604198930950002,-140.00363121497998
1698908450642,180.4030685034545,-1.135852473095,-140.49539111497998
1698908450654,181.2413776034545,-1.2066984630950002,-140.98998211498
1698908450668,182.0870674034545,-1.272746133095,-141.48743911498
1698908450682,182.9389903034545,-1.334461793095,-141.98662041498
1698908450697,183.79556020345456,-1.393749963095,-142.48648281498
1698908450711,184.6548483034545,-1.4503891830950002,-142.98575761498
1698908450723,185.51703130345453,-1.4950948430950002,-143.48548601498
1698908450738,186.3832615034545,-1.507491043095,-143.98835481498
1698908450753,187.2534326034545,-1.4683410730950002,-144.49736981498
1698908450767,188.1237887034545,-1.386429233095,-145.01241221498
1698908450780,188.99098380345453,-1.280579233095,-145.53263921498
1698908450794,189.85046690345453,-1.171508833095,-146.05608251498
1698908450808,190.6993790034545,-1.0776594430950002,-146.58147411498
1698908450822,191.5365268034545,-1.009640193095,-147.10897741498002
1698908450836,192.3647177034545,-0.957282983095,-147.64174091498
1698908450849,193.1818015034545,-0.907907913095,-148.18019571498002
1698908450864,193.98847030345456,-0.851179973095,-148.72563071498
1698908450877,194.78258430345457,-0.784237783095,-149.27774021498
1698908450892,195.56287540345457,-0.7122384230950001,-149.83377621498002
1698908450906,196.32707160345456,-0.639924633095,-150.39111461498
1698908450921,197.07631810345453,-0.5649050130950001,-150.94812771498002
1698908450934,197.81263080345457,-0.476955973095,-151.50483961498003
1698908450949,198.5383266034545,-0.372326173095,-152.06004351498004
1698908450962,199.25593930345457,-0.255016173095,-152.61329531498004
1698908450975,199.9656678034545,-0.135383173095,-153.16373241498005
1698908450987,200.66810260345457,-0.024871973095,-153.71202251498005
1698908451001,201.36486120345447,0.0693205869049999,-154.25913161498005
1698908451018,202.05730720345457,0.1429464569049999,-154.80612441498005
1698908451031,202.74729810345457,0.1966260069049999,-155.35426521498005
1698908451043,203.43589790345456,0.2307460669049999,-155.90419651498004
1698908451057,204.12383750345447,0.2448045169049999,-156.45615151498004
1698908451073,204.8120855034545,0.2372155539049999,-157.01065861498003
1698908451087,205.5019652034545,0.2098125439049999,-157.56795501498004
1698908451099,206.19356020345447,0.1676485339049999,-158.12857521498003
1698908451113,206.8867090034545,0.1132723739049999,-158.69363061498004
1698908451127,207.5811018034545,0.0469528039049999,-159.26405361498004
1698908451141,208.27707720345447,-0.030324406095,-159.83985541498004
1698908451155,208.97405360345456,-0.117555526095,-160.42039011498002
1698908451170,209.67263730345456,-0.213902846095,-161.00595911498002
1698908451182,210.37244710345456,-0.315812146095,-161.59621151498
1698908451197,211.07318060345457,-0.421502346095,-162.19064991498
1698908451210,211.77410060345457,-0.530277746095,-162.78880351498
1698908451225,212.47516570345456,-0.6407876460949999,-163.39094091498
1698908451240,213.17653820345456,-0.7510654460949999,-163.99776261498002
1698908451254,213.87893390345457,-0.858260046095,-164.60966771498002
1698908451268,214.58305530345456,-0.959273546095,-165.22782401498003
1698908451279,215.28939650345453,-1.051722916095,-165.85322171498004
1698908451293,215.9980783034545,-1.135897016095,-166.48609721498005
1698908451308,216.7094113034545,-1.212319966095,-167.12662471498004
1698908451324,217.4229217034545,-1.2797177360949998,-167.77569061498005
1698908451337,218.1380930034545,-1.337723326095,-168.43204831498005
1698908451352,218.85432270345456,-1.3863992160949998,-169.09537901498004
1698908451364,219.57077610345456,-1.428220696095,-169.76398181498004
1698908451377,220.2863451034545,-1.465232626095,-170.43511671498004
1698908451390,221.00058430345456,-1.495324236095,-171.10651921498004
1698908451404,221.7175076034545,-1.502128268095,-171.77899811498003
1698908451419,222.4407387034545,-1.456252958095,-172.45510881498004
1698908451434,223.1715131034545,-1.357219098095,-173.13403521498003
1698908451446,223.9112715034545,-1.2252472980949998,-173.81420871498003
1698908451460,224.6569887034545,-1.0871377980949997,-174.49192801498003
1698908451474,225.4055228034545,-0.9682692980949996,-175.16349611498003
1698908451488,226.1553812034545,-0.8848400980949996,-175.82489921498004
1698908451502,226.9067954034545,-0.8317444280949996,-176.47612151498004
1698908451514,227.65884990345447,-0.7960228880949995,-177.11486491498005
1698908451529,228.4118398034545,-0.7593528180949995,-177.73858941498003
1698908451543,229.1666792034545,-0.7113222180949995,-178.34568431498005
1698908451559,229.9244018034545,-0.6483987080949996,-178.93625901498004
1698908451573,230.6837717034545,-0.5694732080949996,-179.51165021498005
1698908451585,231.44328820345453,-0.4700652780949995,-180.07409941498003
1698908451599,232.20073680345453,-0.3531547780949995,-180.6258521149801
1698908451612,232.9545747034545,-0.2275865780949995,-181.1681274149801
1698908451629,233.7048958034545,-0.1025382780949995,-181.7040317149801
1698908451643,234.4525447034545,0.0155574219050004,-182.2351879149801
1698908451655,235.1989729034545,0.1228797219050004,-182.76346331498007
1698908451669,235.9454159034545,0.2144924719050004,-183.28978471498007
1698908451681,236.6929824034545,0.2871114719050004,-183.81379171498008
1698908451696,237.44246800345456,0.3394646019050005,-184.3357272149801
1698908451710,238.19438760345457,0.3710901719050005,-184.8559405149801
1698908451724,238.94963790345457,0.3850144719050005,-185.3757898149801
1698908451739,239.70921890345457,0.3832888689050004,-185.8961409149801
1698908451754,240.47340350345456,0.3670273389050004,-186.4172244149801
1698908451768,241.24336890345447,0.3352499689050005,-186.9388638149801
1698908451780,242.01905250345456,0.2906785989050005,-187.4599110149801
1698908451793,242.8006014034545,0.2346115489050004,-187.9799025149801
1698908451808,243.5885635034545,0.1689763789050004,-188.4986262149801
1698908451822,244.3831549034545,0.0956761289050004,-189.0163042149801
1698908451838,245.18459250345447,0.0157907289050004,-189.53305921498009
1698908451850,245.99383360345456,-0.0705463310949995,-190.0484811149801
1698908451864,246.81056070345457,-0.1615687910949995,-190.5630491149801
1698908451878,247.6357591034545,-0.2556806010949995,-191.07627391498008
1698908451890,248.46924370345457,-0.3506904610949996,-191.5880439149801
1698908451905,249.31137450345457,-0.4465998810949996,-192.0986769149801
1698908451921,250.16211510345457,-0.5434897410949996,-192.6086113149801
1698908451935,251.02232880345457,-0.6408399910949996,-193.1185038149801
1698908451947,251.89199570345457,-0.7371798910949996,-193.6280428149801
1698908451960,252.77054090345456,-0.8307170010949996,-194.1372248149801
1698908451975,253.6581922034545,-0.9210217410949996,-194.6449701149801
1698908451990,254.55333640345447,-1.0083774310949996,-195.1513638149801
1698908452005,255.45515990345456,-1.0921792810949995,-195.6553716149801
1698908452016,256.3609256034546,-1.1726809910949996,-196.1567939149801
1698908452029,257.26968560345455,-1.2472933810949995,-196.6552703149801
1698908452043,258.18157830345456,-1.3029603110949997,-197.1518718149801
1698908452059,259.09829870345453,-1.3116418470949998,-197.6503892149801
1698908452074,260.0176754034545,-1.2645683870949995,-198.15283051498008
1698908452087,260.9368994034545,-1.1815835970949995,-198.65799041498008
1698908452100,261.8532788034545,-1.0900777470949996,-199.16376631498008
1698908452113,262.7636825034545,-1.0101872270949996,-199.66918991498008
1698908452127,263.6678765034545,-0.9527718470949996,-200.17547341498008
1698908452142,264.5676685034545,-0.9083478870949996,-200.68596821498008
1698908452154,265.4613089034545,-0.8621797470949996,-201.20236881498008
1698908452167,266.3471181034545,-0.8049156470949995,-201.72641341498007
1698908452181,267.22180300345445,-0.7349557870949995,-202.2594483149801
1698908452195,268.08294060345446,-0.6590501670949995,-202.80011681498007
1698908452210,268.92866750345445,-0.5829637170949995,-203.34640721498008
1698908452225,269.76124270345446,-0.4995180070949995,-203.8976193149801
1698908452239,270.5835646034545,-0.4003996070949995,-204.45285381498007
1698908452253,271.3977565034545,-0.2839863070949995,-205.01027141498008
1698908452267,272.2069883034545,-0.1571952070949995,-205.56771261498008
1698908452279,273.01139400345454,-0.0317985070949995,-206.1234704149801
1698908452294,273.8114668034545,0.0812511929050004,-206.67790681498008
1698908452308,274.60809690345457,0.1726616529050005,-207.2316821149801
1698908452322,275.4028229034546,0.2390355929050004,-207.7849825149801
1698908452335,276.1965222034546,0.2798544629050005,-208.3379933149801
1698908452348,276.98925910345463,0.2978751929050005,-208.8908308149801
1698908452364,277.78148180345465,0.2920581609050005,-209.4447992149801
1698908452378,278.57318180345464,0.2649439509050004,-210.0013807149801
1698908452392,279.36542900345466,0.2195730009050004,-210.5613458149801
1698908452408,280.15824620345467,0.1599810409050004,-211.1250103149801
1698908452419,280.9514558034547,0.0887132309050004,-211.6920261149801
1698908452432,281.7443961034547,0.0057937409050004,-212.2626969149801
1698908452446,282.5358924034547,-0.0896862190949995,-212.8368938149801
1698908452461,283.32497100345466,-0.1963639190949995,-213.4157339149801
1698908452476,284.1108823034547,-0.3110425190949996,-213.9996952149801
1698908452490,284.8938527034547,-0.4300941190949995,-214.5888255149801
1698908452503,285.6736723034547,-0.5518680190949996,-215.1836892149801
1698908452515,286.4505912034547,-0.6753963190949996,-215.78476741498008
1698908452530,287.2251672034547,-0.8003261190949996,-216.39246651498007
1698908452544,287.9980225034547,-0.9242672190949996,-217.00737331498007
1698908452557,288.7702964034547,-1.0437089190949995,-217.6297978149801
1698908452572,289.5428088034547,-1.1540590190949995,-218.26081521498008
1698908452585,290.3162173034547,-1.2542975190949996,-218.90015241498008
1698908452600,291.0906337034547,-1.3429272090949995,-219.5489743149801
1698908452613,291.8654939034547,-1.4205717790949997,-220.20631171498005
1698908452628,292.6400157034547,-1.4887692890949995,-220.87115111498005
1698908452642,293.4136860034547,-1.5484621190949996,-221.5411196149801
1698908452655,294.1851141034547,-1.6006854890949995,-222.21414611498005
1698908452668,294.95423990345466,-1.6416637090949997,-222.88890131498005
1698908452682,295.7256214034547,-1.6505660230949997,-223.5676828149801
1698908452697,296.5029082034547,-1.6019587130949997,-224.25203281498003
1698908452711,297.2860207034547,-1.4945101130949996,-224.94068251498007
1698908452726,298.0713252034547,-1.3615559130949997,-225.62624481498003
1698908452739,298.8550642034548,-1.2339393130949996,-226.3017044149801
1698908452752,299.63479290345475,-1.1310505130949997,-226.96279441498007
1698908452766,300.4091284034548,-1.0616841130949994,-227.60728551498008
1698908452780,301.1806358034548,-1.0151313130949997,-228.23814181498008
1698908452794,301.9492811034548,-0.9738564330949996,-228.85404921498008
1698908452810,302.7172981034548,-0.9218075130949994,-229.4549720149801
1698908452823,303.4877485034548,-0.8488966430949995,-230.0413081149801
1698908452836,304.2615191034548,-0.7559801530949994,-230.61626121498009
1698908452849,305.0383041034548,-0.6430552530949994,-231.1811246149801
1698908452865,305.8171687034548,-0.5124254530949994,-231.73801441498009
1698908452877,306.5965521034548,-0.3712548530949994,-232.28806351498008
1698908452891,307.3756482034548,-0.2282633530949994,-232.83185921498008
1698908452905,308.1543791034548,-0.0915876530949993,-233.37022481498008
1698908452920,308.9335971034548,0.0332821469050006,-233.90455991498007
1698908452934,309.7143136034548,0.1444730469050006,-234.43572311498008
1698908452947,310.4971134034548,0.2408721569050006,-234.9648756149801
1698908452961,311.2822516034548,0.3207388969050006,-235.49295651498008
1698908452975,312.0702985034548,0.3798552269050006,-236.01993611498008
1698908452988,312.8612577034548,0.4153371669050006,-236.5461497149801
1698908453002,313.6556835034548,0.4252240989050006,-237.07174361498008
1698908453016,314.4540180034548,0.4127536389050006,-237.59722341498008
1698908453029,315.2563908034548,0.3812614089050006,-238.12275831498008
1698908453045,316.0625850034548,0.3327522389050006,-238.6487989149801
1698908453059,316.8731017034548,0.2669997989050006,-239.1756503149801
1698908453071,317.6876476034548,0.1854699889050006,-239.70315051498005
1698908453084,318.50641230345474,0.0905579989050006,-240.23081721498005
1698908453100,319.32916290345474,-0.0157627010949994,-240.75795291498005
1698908453113,320.1561660034548,-0.1296711010949994,-241.28463581498005
1698908453130,320.98804590345475,-0.2463027010949994,-241.81177051498003
1698908453143,321.8247626034548,-0.3622346010949994,-242.33966841498005
1698908453155,322.66684880345474,-0.4783896010949994,-242.86763311498007
1698908453169,323.5151763034547,-0.5959845010949993,-243.39507661498007
1698908453183,324.3711073034547,-0.7136790010949994,-243.92209551498007
1698908453198,325.2347557034547,-0.8280641010949994,-244.44900701498008
1698908453212,326.1061408034547,-0.9368354010949994,-244.97606971498007
1698908453225,326.9850711034547,-1.0390630010949995,-245.5036762149801
1698908453239,327.8713676034547,-1.1349319310949997,-246.03164041498007
1698908453253,328.7650380034547,-1.2230318010949994,-246.5596189149801
1698908453267,329.6659416034547,-1.3015338310949995,-247.08787561498008
1698908453280,330.5725719034548,-1.3708750610949996,-247.61652621498007
1698908453294,331.4840865034547,-1.4288979210949997,-248.14563281498008
1698908453308,332.3985053034547,-1.4718022710949994,-248.67543351498009
1698908453322,333.31547870345474,-1.489523261094999,-249.20703031498007
1698908453335,334.2357940034548,-1.4644600610949994,-249.74320971498008
1698908453349,335.1585969034548,-1.3828181610949994,-250.28620551498008
1698908453364,336.0809235034548,-1.2562383610949994,-250.83545501498008
1698908453377,336.9996907034548,-1.1154391610949994,-251.3886740149801
1698908453391,337.9125906034548,-0.9836140610949994,-251.9445816149801
1698908453405,338.8176256034548,-0.8747313610949994,-252.5029812149801
1698908453419,339.7164068034548,-0.7872862910949994,-253.0663179149801
1698908453433,340.6105240034548,-0.7077088110949994,-253.6383998149801
1698908453446,341.4983656034548,-0.6226698110949994,-254.2192557149801
1698908453460,342.3774551034548,-0.5272556610949994,-254.8108870149801
1698908453474,343.2443411034548,-0.4288684610949994,-255.4118468149801
1698908453488,344.0958900034548,-0.3365090210949994,-256.0183468149801
1698908453503,344.9311459034548,-0.2502200110949994,-256.62969261498006
1698908453516,345.7522461034548,-0.1583483710949994,-257.24605161498005
1698908453532,346.5597183034548,-0.0513042710949994,-257.86737991498006
1698908453544,347.35735560345483,0.0695529289050005,-258.4932256149801
1698908453558,348.14604980345484,0.1967175289050005,-259.1228149149801
1698908453572,348.92515420345484,0.3168152289050006,-259.7549920149801
1698908453586,349.69615720345485,0.4195297289050005,-260.3900571149801
1698908453600,350.46002490345484,0.4970903989050005,-261.0283036149801
1698908453614,351.21896170345485,0.5490058289050006,-261.6689130149801
1698908453629,351.97387090345484,0.5713424589050006,-262.3114664149801
1698908453642,352.72649640345486,0.5648261559050006,-262.9561373149801
1698908453657,353.47834800345487,0.5353172659050006,-263.6031871149801
1698908453669,354.2305374034549,0.4872606359050006,-264.25318911498005
1698908453681,354.9837332034549,0.4247353959050006,-264.90662151498003
1698908453697,355.7379694034549,0.3492925659050006,-265.56399421498
1698908453710,356.4931418034549,0.2625168859050006,-266.22575461498
1698908453725,357.2491450034549,0.1649622059050006,-266.89111581498
1698908453740,358.0052466034549,0.0579022059050006,-267.55922501498003
1698908453754,358.76104560345493,-0.0562046940949993,-268.23031141498
1698908453768,359.51568030345493,-0.1729276940949993,-268.90529101498
1698908453780,360.26911380345496,-0.2889313940949993,-269.58448591498
1698908453794,361.02143280345496,-0.4025773940949994,-270.26943991498
1698908453808,361.7729245034549,-0.5127155940949993,-270.96106191498
1698908453824,362.5237512034549,-0.6169469940949993,-271.66072001498003
1698908453836,363.2740727034549,-0.7135690640949993,-272.36762811498005
1698908453848,364.0236772034549,-0.8009967440949993,-273.08261731498004
1698908453862,364.7727870034549,-0.8792047040949993,-273.80539001498005
1698908453877,365.5208283034549,-0.9484542040949993,-274.5358595149801
1698908453891,366.26723580345487,-1.0088792240949993,-275.27272561498006
1698908453906,367.0114502034549,-1.0607811940949994,-276.0138843149801
1698908453920,367.75215150345485,-1.1043005240949997,-276.7568322149801
1698908453933,368.4907394034549,-1.1345868440949995,-277.4999099149801
1698908453945,369.2299560034549,-1.1354158486949997,-278.24360251498007
1698908453961,369.9726681034549,-1.0854014986949994,-278.98912731498007
1698908453976,370.7189831034549,-0.9910019586949994,-279.73486161498005
1698908453989,371.4685619034549,-0.8801180586949994,-280.47702821498007
1698908454003,372.21932250345486,-0.7766205586949994,-281.21158361498004
1698908454018,372.9702277034549,-0.6951706886949993,-281.93619081498
1698908454030,373.7208872034548,-0.6370486186949993,-282.65036811498004
1698908454043,374.4710611034548,-0.5877630086949993,-283.35588621498005
1698908454058,375.2211444034548,-0.5296898486949994,-284.05055101498004
1698908454071,375.9727220034548,-0.4507775286949994,-284.73067691498005
1698908454086,376.7280291034548,-0.3518676886949994,-285.39409391498003
1698908454100,377.4874187034548,-0.2367919886949994,-286.03853681498003
1698908454112,378.2505296034548,-0.1022728886949994,-286.66682571498
1698908454127,379.0160850034548,0.0543464113050005,-287.28282541498
1698908454142,379.7828057034548,0.2265930113050006,-287.88860111498
1698908454157,380.5498949034548,0.4006709113050006,-288.48623981498
1698908454171,381.3176415034548,0.5641844113050006,-289.07749901498
1698908454185,382.0864538034548,0.7091828113050006,-289.66357321498
1698908454198,382.8567425034548,0.8298479113050006,-290.24558971498
1698908454212,383.6289670034548,0.9241660313050006,-290.82480751498
1698908454226,384.4035834034548,0.9896001213050006,-291.40190041498
1698908454239,385.1806595034548,1.0265236413050007,-291.97808361498
1698908454252,385.9602910034548,1.0369605713050007,-292.55438911498
1698908454268,386.7425301034548,1.0229159513050008,-293.13156571498
1698908454279,387.5280793034548,0.9870705313050008,-293.71039811498
1698908454294,388.3174292034548,0.9322196413050008,-294.29156651498
1698908454308,389.1118615034548,0.8604674413050007,-294.87433821498
1698908454320,389.91237640345474,0.7750237313050008,-295.45824261498
1698908454335,390.7197667034548,0.6779391513050008,-296.04253751498
1698908454349,391.5341729034548,0.5707392513050008,-296.62750901498
1698908454363,392.3546718034548,0.4549659513050008,-297.21323961497995
1698908454377,393.1815312034548,0.3311270513050008,-297.79941241497994
1698908454392,394.0154428034548,0.2017012513050008,-298.38593191497995
1698908454406,394.8566656034548,0.0704820513050008,-298.9724247149799
1698908454421,395.7047885034549,-0.0597816486949991,-299.55798841497995
1698908454434,396.56015860345485,-0.1888964486949991,-300.14304081497994
1698908454446,397.4224722034549,-0.3170810486949992,-300.72778301497993
1698908454461,398.29337200345486,-0.4417266486949992,-301.3122476149799
1698908454475,399.1729505034549,-0.5601867486949992,-301.89678821497995
1698908454489,400.0617850034548,-0.6702584486949992,-302.48181451498
1698908454503,400.9594013034548,-0.7721938486949992,-303.06748261497995
1698908454516,401.8651802034548,-0.8658685486949992,-303.65305151497995
1698908454530,402.7779392034548,-0.9514131186949992,-304.23836581497994
1698908454543,403.6969438034548,-1.0271278886949993,-304.82336981498
1698908454558,404.6210421034548,-1.0898391686949993,-305.40791821498
1698908454571,405.5511803034548,-1.1260925786949991,-305.99368961498
1698908454585,406.4892459034548,-1.1095202586949993,-306.58387271498
1698908454600,407.4320150034548,-1.0356488686949992,-307.17815631498
1698908454614,408.3764653034549,-0.9234643686949991,-307.77519551497994
1698908454626,409.31909510345486,-0.7998915686949991,-308.37302541498
1698908454641,410.2570751034549,-0.6867485686949991,-308.97159131497995
1698908454657,411.19335840345485,-0.5879634186949991,-309.57524991498
1698908454671,412.1266351034549,-0.4933421286949991,-310.18685141498
1698908454682,413.0550109034549,-0.3946778086949991,-310.80734341498
1698908454697,413.9744463034549,-0.2907376086949991,-311.43658331498
1698908454711,414.8817201034549,-0.1868656086949991,-312.07233851498
1698908454725,415.7752936034549,-0.0879391386949991,-312.71365161498
1698908454740,416.6539106034549,0.0056123613050008,-313.35882421498
1698908454752,417.5194653034549,0.0986087913050008,-314.00671051498
1698908454765,418.3749352034549,0.1987956913050008,-314.65649691498
1698908454781,419.2219393034549,0.3099551913050008,-315.30714181498
1698908454795,420.0609255034549,0.4269783913050008,-315.95776491498
1698908454808,420.89125350345495,0.5391400913050008,-316.60713121498
1698908454824,421.7126121034549,0.6363624913050009,-317.25511241498
1698908454836,422.52571490345497,0.7123646013050009,-317.90136941498
1698908454848,423.33200820345496,0.7649203513050009,-318.54533941498
1698908454863,424.13257570345496,0.7938453313050009,-319.18712471498
1698908454877,424.928441103455,0.7996669783050009,-319.82673121498
1698908454892,425.720844703455,0.7840270483050009,-320.46497311498
1698908454907,426.51064150345496,0.7491422383050009,-321.10296241498
1698908454921,427.29904240345496,0.698700488305001,-321.74184131498004
1698908454934,428.08669730345497,0.635821488305001,-322.38267271498006
1698908454947,428.873239903455,0.560954668305001,-323.0263777149801
1698908454961,429.658367503455,0.4750072583050009,-323.6739426149801
1698908454975,430.441078203455,0.380203858305001,-324.3268049149801
1698908454988,431.220021303455,0.2776719583050009,-324.9861973149801
1698908455002,431.99522380345496,0.1687529583050009,-325.65182871498007
1698908455017,432.76736670345497,0.0559043583050009,-326.3234507149801
1698908455032,433.53616460345495,-0.056904141694999,-327.0006850149801
1698908455045,434.3015630034549,-0.167935441694999,-327.6834014149801
1698908455057,435.06318970345495,-0.275915941694999,-328.3726874149801
1698908455071,435.82111400345497,-0.379477841694999,-329.07003341498006
1698908455086,436.57591250345496,-0.4767204016949989,-329.7751602149801
1698908455101,437.327599803455,-0.566423411694999,-330.4882152149801
1698908455115,438.075842103455,-0.650153771694999,-331.2076230149801
1698908455128,438.820072603455,-0.728905491694999,-331.9315634149801
1698908455143,439.559736903455,-0.800737641694999,-332.65748831498007
1698908455153,440.29391400345503,-0.864847491694999,-333.38227321498005
1698908455168,441.024398003455,-0.9150920216949988,-334.10398461498005
1698908455182,441.756059403455,-0.932038201694999,-334.82492271498006
1698908455195,442.493286203455,-0.893104701694999,-335.54775901498004
1698908455210,443.236226103455,-0.807439331694999,-336.27054841498006
1698908455227,443.98343800345503,-0.702854931694999,-336.99038621498005
1698908455239,444.7319410034551,-0.6036740016949991,-337.70420841498003
1698908455252,445.4805706034551,-0.5213607116949991,-338.41128801498
1698908455267,446.2285039034551,-0.459610911694999,-339.10979711498004
1698908455280,446.9778207034551,-0.410934931694999,-339.79980101498006
1698908455294,447.7308931034551,-0.362795571694999,-340.4790363149801
1698908455309,448.4894974034551,-0.302462801694999,-341.1457670149801
1698908455322,449.25423320345504,-0.226034021694999,-341.7988540149801
1698908455337,450.0242038034551,-0.136025921694999,-342.4381813149801
1698908455350,450.7978041034551,-0.033495821694999,-343.0636158149801
1698908455365,451.5733951034551,0.0816537783050009,-343.6764416149801
1698908455377,452.3496747034551,0.2066875783050009,-344.2774921149801
1698908455390,453.1254231034551,0.3362442783050009,-344.8678278149801
1698908455406,453.9003755034551,0.4647282783050009,-345.4487729149801
1698908455420,454.6744597034551,0.5864901783050009,-346.02099041498013
1698908455433,455.4481355034551,0.6973437783050009,-346.5856334149801
1698908455447,456.2221749034551,0.7937817283050009,-347.14434591498014
1698908455461,456.9976502034551,0.871882958305001,-347.6982825149801
1698908455475,457.7753119034551,0.9304689283050008,-348.24890571498014
1698908455487,458.5561597034551,0.9681864783050008,-348.79771051498017
1698908455502,459.3410212034551,0.9847265183050008,-349.3463191149802
1698908455515,460.1310227034551,0.9803959313050008,-349.89536411498017
1698908455529,460.9268913034551,0.9557025513050008,-350.4457373149802
1698908455545,461.7302774034551,0.910328141305001,-350.9974296149802
1698908455559,462.5418770034551,0.8455353313050009,-351.5496004149802
1698908455572,463.3620495034551,0.7645396013050009,-352.1016773149802
1698908455586,464.1902747034552,0.6705045613050009,-352.6539612149802
1698908455600,465.0263883034551,0.5656474613050009,-353.2069362149802
1698908455613,465.8701763034552,0.4513606613050008,-353.7607980149802
1698908455630,466.7220809034552,0.3276765613050008,-354.3146795149802
1698908455641,467.5822094034551,0.1958472613050008,-354.8668475149802
1698908455655,468.4504566034551,0.0583974613050008,-355.4163798149802
1698908455669,469.3272149034551,-0.0832169386949991,-355.9624095149802
1698908455683,470.2120566034551,-0.2247113386949991,-356.5055143149802
1698908455698,471.1055160034551,-0.3620774386949992,-357.04614941498016
1698908455712,472.0072539034551,-0.4921133386949992,-357.58483111498015
1698908455725,472.9173847034551,-0.6137603386949992,-358.12180641498014
1698908455738,473.8359340034551,-0.7264183386949993,-358.65759931498013
1698908455752,474.7623106034551,-0.8297683386949992,-359.1915649149801
1698908455766,475.6961290034551,-0.9224807686949992,-359.7236177149801
1698908455780,476.6358030034551,-1.003053308694999,-360.2542359149801
1698908455794,477.5805181034551,-1.0677115686949992,-360.7829961149801
1698908455807,478.53174710345513,-1.101019858694999,-361.3121422149801
1698908455821,479.4901012034552,-1.0809265986949992,-361.8457341149801
1698908455835,480.45255120345513,-1.006706258694999,-362.3848201149801
1698908455849,481.4148271034552,-0.903857858694999,-362.92814741498006
1698908455864,482.37130860345513,-0.7978900586949991,-363.4732167149801
1698908455879,483.3189034034551,-0.7052235186949991,-364.0194784149801
1698908455892,484.2588307034552,-0.6250912086949991,-364.5695725149801
1698908455905,485.1917179034551,-0.5447421586949991,-365.1267379149801
1698908455917,486.1163692034551,-0.4529011486949991,-365.6922190149801
1698908455932,487.0321940034551,-0.346233848694999,-366.2660961149801
1698908455947,487.9361758034551,-0.229579048694999,-366.84599571498006
1698908455963,488.8256001034551,-0.110301648694999,-367.42926531498006
1698908455975,489.6994205034551,0.0066912513050009,-368.01318111498006
1698908455988,490.5589989034551,0.1256638513050009,-368.59785361498007
1698908456003,491.4056837034551,0.2522171513050009,-369.18421301498006
1698908456015,492.2404209034551,0.3854396513050009,-369.77157461498007
1698908456031,493.0655315034551,0.5188144513050009,-370.3596270149801
1698908456044,493.8810938034551,0.6439994513050009,-370.94757681498
1698908456059,494.6881775034551,0.7523417513050009,-371.53559491498
1698908456072,495.4874485034551,0.8358759713050009,-372.12393181498
1698908456087,496.2810855034551,0.892001161305001,-372.71283111498
1698908456101,497.0706863034551,0.920000381305001,-373.30225421498
1698908456112,497.8579376034551,0.9257099543050008,-373.89256121498
1698908456127,498.6435686034551,0.9089222643050008,-374.48435251498
1698908456142,499.4284073034551,0.8726654143050009,-375.07830481498
1698908456157,500.2135758034551,0.8204466043050009,-375.67489131498
1698908456171,500.9999138034551,0.7545822543050009,-376.27459351498
1698908456184,501.78676910345513,0.6784429843050009,-376.87723821498
1698908456197,502.5736368034552,0.5933307743050009,-377.48318421498
1698908456211,503.3594382034552,0.5000915443050009,-378.0931068149801
1698908456224,504.1431314034552,0.3996730443050009,-378.70711191498
1698908456238,504.9239699034552,0.2929793443050009,-379.32538191498
1698908456252,505.7021038034552,0.1820410443050009,-379.94838621498
1698908456268,506.4772343034552,0.0693666443050009,-380.57638011498
1698908456280,507.2499342034552,-0.043582455694999,-381.20967991498
1698908456294,508.0211396034552,-0.155510855694999,-381.84914001498
1698908456308,508.7915450034552,-0.264493755694999,-382.49501731498
1698908456320,509.5614057034552,-0.368985455694999,-383.14751041498
1698908456334,510.3304865034552,-0.469073255694999,-383.80560751498
1698908456349,511.0980197034552,-0.5659367656949991,-384.46880561498
1698908456362,511.8639066034552,-0.6585722256949991,-385.13619611498
1698908456377,512.6275148034551,-0.7439121256949991,-385.80742461498
1698908456392,513.3875886034551,-0.819962655694999,-386.48098691498
1698908456406,514.1440706034551,-0.8824019256949991,-387.15590791498
1698908456419,514.9011590034552,-0.9165793956949992,-387.83236681498
1698908456434,515.6628799034552,-0.8987471256949991,-388.51189001498
1698908456447,516.4297313034551,-0.8261209956949992,-389.19333971498
1698908456460,517.2011094034551,-0.7217884956949991,-389.87342401498
1698908456473,517.9745769034552,-0.6119969956949991,-390.54832811498
1698908456488,518.7481123034552,-0.514653005694999,-391.21655181498
1698908456504,519.5210803034552,-0.4394331556949991,-391.87712081498
1698908456515,520.2942888034552,-0.3801079056949991,-392.52969031498
1698908456529,521.0687576034552,-0.324273955694999,-393.17254271498
1698908456544,521.8454497034552,-0.261321445694999,-393.80341551498
1698908456558,522.6251321034551,-0.186497435694999,-394.41853151498
1698908456571,523.4069728034551,-0.101612355694999,-395.01719051498
1698908456585,524.1891834034551,-0.007838095694999,-395.59921701498
1698908456599,524.9713022034551,0.1002974043050009,-396.16770611498
1698908456613,525.7512635034551,0.2258670043050009,-396.72517431498
1698908456627,526.5278808034551,0.3646215043050009,-397.27427511498
1698908456641,527.299674303455,0.505891204305001,-397.81691691498
1698908456654,528.065944303455,0.640750004305001,-398.35302831498
1698908456668,528.8269305034551,0.763722804305001,-398.88322301498
1698908456681,529.5837016034551,0.8721518043050009,-399.40839111498
1698908456697,530.338385403455,0.965954704305001,-399.92977681498
1698908456710,531.0921888034551,1.042648294305001,-400.44768221498
1698908456724,531.845853803455,1.100207654305001,-400.96305291498
1698908456739,532.599276803455,1.136297414305001,-401.47679611498
1698908456752,533.352869303455,1.1528110543050012,-401.98943601498
1698908456766,534.108292403455,1.1517719683050012,-402.50055511498
1698908456780,534.866842403455,1.134830568305001,-403.01001551498
1698908456794,535.6303057034551,1.102664518305001,-403.51776341498
1698908456808,536.399063603455,1.056655928305001,-404.02450341498
1698908456822,537.173540403455,0.998662178305001,-404.53134961498
1698908456837,537.954272303455,0.9313244083050012,-405.03815261498
1698908456848,538.741998503455,0.8570589383050011,-405.54470991498
1698908456862,539.536404303455,0.7769415183050011,-406.05128431498
1698908456876,540.3379562034551,0.6906771283050012,-406.55751611498
1698908456890,541.147352303455,0.5992918383050012,-407.06318191498
1698908456906,541.965429603455,0.5055596683050012,-407.56795721498
1698908456921,542.793327403455,0.4122461783050012,-408.07162181498
1698908456932,543.631516303455,0.3221696983050012,-408.57435231497993
1698908456947,544.479394403455,0.2363271383050011,-409.07659141497993
1698908456961,545.337649803455,0.1560396483050011,-409.57790071497993
1698908456975,546.205541603455,0.0815140183050011,-410.07837901497993
1698908456988,547.082883203455,0.0147871883050011,-410.57784331497993
1698908457002,547.969237303455,-0.0423333816949988,-411.0760478149799
1698908457015,548.863391403455,-0.0890049516949988,-411.5724490149799
1698908457030,549.763554803455,-0.1285063216949988,-412.0666977149799
1698908457044,550.668026303455,-0.1604081916949988,-412.5580532149799
1698908457058,551.576596003455,-0.1750226516949988,-413.0483008149799
1698908457071,552.489748603455,-0.1520098616949988,-413.5394058149799
1698908457085,553.405427603455,-0.0834154316949988,-414.0320691149799
1698908457097,554.322437503455,0.0168311683050011,-414.5257301149799
1698908457114,555.238048003455,0.1312199683050011,-415.0193687149799
1698908457127,556.148592103455,0.2403518683050011,-415.5121485149799
1698908457141,557.053831003455,0.3308403583050011,-416.0054537149799
1698908457154,557.955792303455,0.4051659583050011,-416.5020823149799
1698908457169,558.851025603455,0.4728746483050011,-417.0037605149799
1698908457182,559.7370204034551,0.5459979283050012,-417.5120527149799
1698908457197,560.6094186034551,0.6313854583050011,-418.02778451498
1698908457211,561.4657442034551,0.7286170483050012,-418.55016631498
1698908457225,562.3047380034551,0.8332519483050012,-419.07755701498
1698908457238,563.1272347034551,0.9428961483050012,-419.60821791498
1698908457252,563.9362435034551,1.0611299483050012,-420.14127951498
1698908457265,564.7340584034552,1.1884027483050013,-420.6755429149799
1698908457279,565.5215894034551,1.3189546483050012,-421.2097433149799
1698908457294,566.2996755034551,1.4442023483050013,-421.7429099149799
1698908457308,567.0693784034551,1.5572811483050013,-422.27471871498
1698908457323,567.8321964034551,1.6538688383050013,-422.80522971497993
1698908457334,568.5898870034551,1.7322153183050013,-423.3352421149799
1698908457349,569.3436646034552,1.7916139983050012,-423.86513061497993
1698908457362,570.0938351034551,1.8305942283050007,-424.39563331497993
1698908457376,570.8411604034552,1.8475874483050008,-424.9270829149799
1698908457391,571.5861350034552,1.8426133473050013,-425.4604689149799
1698908457406,572.3299775034552,1.8190854773050007,-425.99616031497993
1698908457419,573.0736635034552,1.7834376273050014,-426.5349302149799
1698908457433,573.8169427034552,1.7387276673050014,-427.0780728149799
1698908457445,574.5582247034552,1.6855628073050013,-427.6275532149799
1698908457460,575.2954882034552,1.6232387173050014,-428.1848943149799
1698908457474,576.0269630034552,1.5513331273050013,-428.7512834149799
1698908457488,576.7514747034552,1.4690858973050012,-429.3277088149799
1698908457500,577.4703840034551,1.3791158073050012,-429.9135866149799
1698908457515,578.1849535034552,1.283456577305001,-430.5086732149799
1698908457530,578.8958695034552,1.183057277305001,-431.1122031149799
1698908457544,579.6041459034552,1.077399277305001,-431.7235354149799
1698908457558,580.3106759034553,0.968427977305001,-432.3419124149799
1698908457571,581.0172196034553,0.859581877305001,-432.9663062149799
1698908457584,581.7254300034552,0.7542350773050011,-433.5953405149799
1698908457598,582.4365156034553,0.655342797305001,-434.2281433149799
1698908457612,583.1513375034552,0.565372747305001,-434.8645656149799
1698908457628,583.8700777034552,0.4869401573050009,-435.5050008149799
1698908457643,584.5924714034552,0.421004207305001,-436.1490498149799
1698908457655,585.3178832034552,0.367023617305001,-436.7959794149799
1698908457669,586.0456558034551,0.323801957305001,-437.4447236149799
1698908457681,586.7737622034551,0.290904797305001,-438.0938770149799
1698908457696,587.5014006034552,0.271606867305001,-438.7424110149799
1698908457710,588.2326497034552,0.287306767305001,-439.3934431149799
1698908457725,588.9680585034552,0.359043757305001,-440.0487236149799
1698908457739,589.7056347034552,0.470370057305001,-440.7060427149799
1698908457753,590.4451983034552,0.592345957305001,-441.3623584149799
1698908457766,591.1828235034552,0.700290157305001,-442.0169795149799
1698908457779,591.9160194034553,0.778578487305001,-442.6700141149799
1698908457793,592.6442805034553,0.825409487305001,-443.3195077149799
1698908457807,593.3696760034553,0.847933297305001,-443.96195271497993
1698908457820,594.0936525034554,0.859932787305001,-444.59407431497993
1698908457835,594.8174581034554,0.875640547305001,-445.2133610149799
1698908457848,595.5422512034554,0.903444677305001,-445.8194618149799
1698908457862,596.2700884034554,0.948799837305001,-446.4126869149799
1698908457876,597.0019440034554,1.016711187305001,-446.9917956149799
1698908457889,597.7378286034553,1.108480637305001,-447.5582558149799
1698908457903,598.4769556034554,1.220957937305001,-448.1129719149799
1698908457918,599.2186317034553,1.344769137305001,-448.6577665149799
1698908457932,599.9636361034553,1.472053437305001,-449.1940493149799
1698908457946,600.7131478034553,1.595898237305001,-449.72391081497983
1698908457962,601.4676117034553,1.711554937305001,-450.2495985149798
1698908457976,602.2275913034553,1.8143049373050009,-450.77298501497984
1698908457987,602.9928140034552,1.9002094573050008,-451.2955178149799
1698908458002,603.7636892034552,1.9641303773050007,-451.8181115149799
1698908458015,604.5404514034552,2.002076497305001,-452.3407453149799
1698908458029,605.3225800034552,2.014639277305001,-452.8643200149799
1698908458043,606.1096427034552,2.003859107305001,-453.3897646149799
1698908458057,606.9015772034552,1.9702273273050013,-453.9181950149799
1698908458071,607.6983345034552,1.915163647305001,-454.4495054149799
1698908458087,608.5004218034552,1.8374798073050007,-454.9833492149799
1698908458099,609.3088053034552,1.7403503773050013,-455.5179641149799
1698908458112,610.1243486034551,1.6279171773050014,-456.0527441149799
1698908458129,610.9469655034551,1.5034611773050015,-456.5879387149799
1698908458142,611.775744803455,1.3696638773050016,-457.1238122149799
1698908458156,612.610336303455,1.2277779773050017,-457.6599650149799
1698908458169,613.451802603455,1.0801618773050017,-458.1946026149799
1698908458182,614.301225203455,0.9297030773050016,-458.7264725149799
1698908458195,615.159407003455,0.7796486773050014,-459.2549573149799
1698908458210,616.027078403455,0.6340629773050014,-459.7815362149799
1698908458225,616.904104103455,0.4962163773050013,-460.3077033149799
1698908458238,617.790433903455,0.3680010773050013,-460.8333657149799
1698908458251,618.686316903455,0.2508716773050013,-461.3588183149799
1698908458265,619.591741603455,0.1464178773050013,-461.8837308149799
1698908458279,620.506923503455,0.0555471973050013,-462.40825651498
1698908458294,621.430780903455,-0.0218734826949986,-462.93206891498
1698908458308,622.362843203455,-0.0859782326949986,-463.45368021498
1698908458322,623.302458003455,-0.1384302826949986,-463.9709999149799
1698908458335,624.247893503455,-0.1781935026949986,-464.48314711498
1698908458347,625.1998162034549,-0.1912340826949986,-464.99301021498
1698908458363,626.1581354034549,-0.1521235826949986,-465.50566011498
1698908458377,627.1181406034549,-0.0647004326949986,-466.02255591497993
1698908458391,628.0794420034549,0.0443039673050013,-466.5444585149799
1698908458405,629.0409040034549,0.1499701673050013,-467.0717285149799
1698908458418,630.0003436034549,0.2392115273050013,-467.6050738149799
1698908458432,630.9577049034549,0.3189868973050013,-468.1485172149799
1698908458446,631.9094102034549,0.4039078373050013,-468.7051452149799
1698908458461,632.8519246034549,0.5022965373050013,-469.2749942149799
1698908458474,633.7817853034549,0.6083851373050013,-469.85499821497984
1698908458489,634.6939560034549,0.7111714373050013,-470.44213981497984
1698908458503,635.5864866034549,0.8025214773050013,-471.0331318149798
1698908458517,636.4596738034548,0.8837322073050013,-471.6268807149798
1698908458532,637.3164235034549,0.9680383473050014,-472.22339681497976
1698908458545,638.1593142034549,1.0695333473050015,-472.8212396149798
1698908458557,638.9915524034549,1.1901069473050014,-473.4206662149798
1698908458571,639.8139249034549,1.315504147305001,-474.0203944149798
1698908458585,640.6253333034549,1.4285310473050012,-474.6193656149798
1698908458599,641.4281349034549,1.5179230773050012,-475.2184202149798
1698908458614,642.2237696034549,1.5776403873050011,-475.81842251497983
1698908458627,643.0145017034549,1.610095637305001,-476.42063121497984
1698908458641,643.801254503455,1.617029690305001,-477.02632941497984
1698908458654,644.585848703455,1.600827810305001,-477.6360389149799
1698908458667,645.370010803455,1.563166380305001,-478.2506279149799
1698908458683,646.1552749034549,1.506786180305001,-478.8707904149799
1698908458697,646.942589303455,1.436019730305001,-479.4963555149799
1698908458711,647.7322948034549,1.353037000305001,-480.1273934149799
1698908458723,648.524338803455,1.2588386503050009,-480.7636309149799
1698908458737,649.3183243034549,1.1549751503050008,-481.4049116149799
1698908458752,650.1135951034549,1.0421071503050008,-482.0513935149799
1698908458766,650.909864103455,0.9223184503050008,-482.7023613149799
1698908458780,651.706797803455,0.7973565503050009,-483.3589091149799
1698908458793,652.503655203455,0.6701544503050009,-484.0206043149799
1698908458808,653.300449203455,0.5422667503050009,-484.6893588149799
1698908458821,654.0974546034549,0.4150381503050009,-485.3659511149799
1698908458835,654.895626503455,0.2903583503050009,-486.05043331497984
1698908458848,655.695553103455,0.1716500503050009,-486.7431711149798
1698908458862,656.497458003455,0.0602111503050009,-487.4442286149798
1698908458876,657.300953603455,-0.043180149694999,-488.1537689149798
1698908458891,658.105261503455,-0.1396947596949991,-488.87182301497984
1698908458905,658.909872203455,-0.230014789694999,-489.5969097149799
1698908458919,659.714609403455,-0.312875409694999,-490.3274655149799
1698908458935,660.518318503455,-0.385933609694999,-491.0614677149799
1698908458947,661.320276203455,-0.447159839694999,-491.7968671149799
1698908458960,662.1241714034551,-0.479287949694999,-492.5351188149799
1698908458974,662.933648603455,-0.453562009694999,-493.2780837149799
1698908458987,663.747238803455,-0.369574109694999,-494.0228862149799
1698908459003,664.564443003455,-0.253702809694999,-494.7647356149798
1698908459018,665.381141003455,-0.139024709694999,-495.49713041497984
1698908459029,666.193928003455,-0.047869029694999,-496.2179541149798
1698908459043,667.002097803455,0.0059933003050009,-496.9261502149798
1698908459057,667.8079723034549,0.0286269803050009,-497.62250611497984
1698908459071,668.6114092034549,0.0392599803050009,-498.30645161497984
1698908459085,669.4136248034548,0.0615034203050009,-498.9754376149799
1698908459099,670.2165942034549,0.1083590703050009,-499.6281952149798
1698908459111,671.0227016034548,0.1826870003050009,-500.2624719149798
1698908459125,671.8319680034548,0.284067200305001,-500.8806116149798
1698908459139,672.6425833034548,0.418761800305001,-501.4839618149798
1698908459155,673.4517173034548,0.581120700305001,-502.0757518149798
1698908459168,674.2576027034547,0.757329700305001,-502.6583740149798
1698908459182,675.0611879034548,0.936110800305001,-503.23314941497983
1698908459195,675.8642446034547,1.109544300305001,-503.8006245149799
1698908459210,676.6681851034547,1.271669200305001,-504.3622740149799
1698908459224,677.4733437034547,1.418007800305001,-504.9200364149799
1698908459237,678.2808271034547,1.543215200305001,-505.4754614149799
1698908459251,678.2808271034547,1.543215200305001,-505.4754614149799
1698908459264,678.2808271034547,1.543215200305001,-505.4754614149799
1698908459277,678.2808271034547,1.543215200305001,-505.4754614149799
1698908459292,678.2808271034547,1.543215200305001,-505.4754614149799
1698908459306,678.2808271034547,1.543215200305001,-505.4754614149799
1698908459321,678.2808271034547,1.543215200305001,-505.4754614149799
1698908459335,678.2808271034547,1.543215200305001,-505.4754614149799
1698908459349,678.2808271034547,1.543215200305001,-505.4754614149799
1698908459364,678.2808271034547,1.543215200305001,-505.4754614149799
1698908459377,678.2808271034547,1.543215200305001,-505.4754614149799
1698908459389,678.2808271034547,1.543215200305001,-505.4754614149799
1698908459404,678.2808271034547,1.543215200305001,-505.4754614149799
1698908459420,678.2808271034547,1.543215200305001,-505.4754614149799
1698908459431,678.2808271034547,1.543215200305001,-505.4754614149799
1698908459445,678.2808271034547,1.543215200305001,-505.4754614149799
1698908459460,678.2808271034547,1.543215200305001,-505.4754614149799
1698908459474,678.2808271034547,1.543215200305001,-505.4754614149799
1698908459488,678.2808271034547,1.543215200305001,-505.4754614149799
1698908459502,678.2808271034547,1.543215200305001,-505.4754614149799
1698908459515,678.2808271034547,1.543215200305001,-505.4754614149799
1698908459530,678.2808271034547,1.543215200305001,-505.4754614149799
1698908459543,678.2808271034547,1.543215200305001,-505.4754614149799
1698908459557,678.2808271034547,1.543215200305001,-505.4754614149799
1698908459571,678.2808271034547,1.543215200305001,-505.4754614149799
1698908459584,678.2808271034547,1.543215200305001,-505.4754614149799
1698908459597,678.2808271034547,1.543215200305001,-505.4754614149799
1698908459611,678.2808271034547,1.543215200305001,-505.4754614149799
1698908459627,678.2808271034547,1.543215200305001,-505.4754614149799
1698908459641,678.2808271034547,1.543215200305001,-505.4754614149799
1698908459655,678.2808271034547,1.543215200305001,-505.4754614149799
1698908459668,678.2808271034547,1.543215200305001,-505.4754614149799
1698908459681,678.2808271034547,1.543215200305001,-505.4754614149799
1698908459695,678.2808271034547,1.543215200305001,-505.4754614149799
1698908459710,678.2808271034547,1.543215200305001,-505.4754614149799
1698908459725,678.2808271034547,1.543215200305001,-505.4754614149799
1698908459739,678.2808271034547,1.543215200305001,-505.4754614149799
1698908459751,678.2808271034547,1.543215200305001,-505.4754614149799
1698908459765,678.2808271034547,1.543215200305001,-505.4754614149799
1698908459779,678.2808271034547,1.543215200305001,-505.4754614149799
1698908459793,678.7448165034547,1.705940500305001,-504.5857848149799
1698908459805,679.2102423034547,1.849573500305001,-503.7022635149799
1698908459821,679.6779051034547,1.9679980003050008,-502.8227856149799
1698908459836,680.1482610034546,2.057274090305001,-501.94526471498
1698908459850,680.6208755034546,2.115524480305001,-501.06822411498
1698908459864,681.0947383034546,2.142625420305001,-500.19047641498
1698908459877,681.5691685034546,2.140938903305001,-499.31105621498
1698908459889,682.0440854034547,2.1114546833050007,-498.42958671498
1698908459903,682.5201698034547,2.058590783305001,-497.54536101498
1698908459917,682.9980506034547,1.9865738033050009,-496.65796391498
1698908459932,683.4784597034546,1.897963093305001,-495.76680931498
1698908459946,683.9617664034546,1.7957544933050007,-494.87137551498
1698908459960,684.4483682034546,1.6829872933050007,-493.97254991498
1698908459974,684.9394276034546,1.5610531933050007,-493.07095741498
1698908459987,685.4362421034547,1.4327191933050007,-492.16754321498
1698908460001,685.9396966034546,1.3012355933050008,-491.26299291498
1698908460014,686.4504490034547,1.1698015933050008,-490.35784401498006
1698908460028,686.9676762034546,1.0409151933050007,-489.45158141498007
1698908460042,687.4916580034546,0.9167108933050008,-488.5433146149801
1698908460058,688.0222480034546,0.8003940933050007,-487.6323060149801
1698908460071,688.5604914034546,0.6940609933050007,-486.7188128149801
1698908460085,689.1058642034546,0.5968189633050007,-485.80358201498007
1698908460099,689.6585374034546,0.5077935633050007,-484.8872618149801
1698908460112,690.2180586034546,0.4264331333050007,-483.9704083149801
1698908460127,690.7830424034546,0.3535439433050007,-483.05395441498007
1698908460142,691.3515999034546,0.2894115833050007,-482.1394395149801
1698908460155,691.9211763034546,0.2329362833050007,-481.2279977149801
1698908460167,692.4914578034545,0.1941481033050007,-480.3170023149801
1698908460181,693.0635063034546,0.1975794613050007,-479.4027600149801
1698908460195,693.6382319034545,0.2592210413050007,-478.4840382149801
1698908460209,694.2122010034545,0.3636364413050006,-477.5616789149801
1698908460225,694.7804142034545,0.4765085413050006,-476.6389195149801
1698908460238,695.3399334034544,0.5722781513050006,-475.7188909149801
1698908460250,695.8907303034545,0.6376450813050006,-474.8020125149801
1698908460265,696.4334162034545,0.6782144013050007,-473.8873544149801
1698908460279,696.9660922034545,0.7134747613050006,-472.9770962149801
1698908460294,697.4860710034545,0.7638248313050007,-472.07101161498014
1698908460309,697.9878709034546,0.8392568113050006,-471.16787851498015
1698908460320,698.4707873034546,0.9339777513050006,-470.26615411498017
1698908460334,698.9347055034546,1.0486078513050006,-469.36522491498016
1698908460347,699.3833692034545,1.1903355513050005,-468.46605121498015
1698908460363,699.8196264034545,1.3586815513050006,-467.57043101498016
1698908460377,700.2457774034546,1.5397983513050006,-466.6795846149802
1698908460391,700.6637456034546,1.7183806513050006,-465.7932822149802
1698908460404,701.0742273034546,1.8839271513050009,-464.9104857149802
1698908460416,701.4802778034546,2.0323419513050007,-464.0301535149802
1698908460431,701.8836211034545,2.1585380513050008,-463.1512654149802
1698908460445,702.2863793034545,2.2602550513050006,-462.2718984149802
1698908460460,702.6895371034545,2.3353170013050004,-461.3906714149802
1698908460473,703.0944375034545,2.3842195713050005,-460.5062901149802
