time,rotate_x,rotate_y,rotate_z,angularVelocity_x,angularVelocity_y,angularVelocity_z,velocity_x,velocity_y,velocity_z,acceleration_x,acceleration_y,acceleration_z,position_x,position_y,position_z
2023-11-06 22:35:47.788000000,-0.08183581,-0.06026635,-0.02919169,0.03179274,0.01149133,0.00577236,0.000345027,0.003444015,-0.006797231,0.000345027,0.003444015,-0.006797231,-0.04555934,1.759937,-0.01097435
2023-11-06 22:35:47.799000064,-0.08282802,-0.05980492,-0.02954644,-0.00244551,-0.01491858,0.006496586,0.001627189,0.000768823,-0.00661092,0.001972216,0.004212838,-0.013408151,-0.04532584,0.0109126,-0.01224243
2023-11-06 22:35:47.812999936,-0.08274297,-0.05950502,-0.02954954,-0.004802693,-0.0190037,0.005852339,0.001585806,0.0006032785,-0.006480771,0.003558022,0.0048161165,-0.019888922,-0.04533632,0.01096107,-0.01224966
2023-11-06 22:35:47.832999936,-0.08282016,-0.05924276,-0.02937409,-0.001937128,-0.02243514,0.006579155,0.001089867,0.0008243948,-0.006621765,0.004647889,0.0056405113,-0.0265106869999999,-0.04536841,0.01100078,-0.01230486
2023-11-06 22:35:47.852999936,-0.08276542,-0.05897988,-0.02950753,0.003117082,-0.02062243,0.004582171,0.0008891572,0.0009294588,-0.006628021,0.0055370462,0.0065699701,-0.0331387079999999,-0.04536894,0.01102995,-0.01238178
2023-11-06 22:35:47.872999936,-0.08303119,-0.05914086,-0.02929212,0.002985473,-0.01944983,0.001268437,0.000392587,0.0006802689,-0.006770013,0.0059296332,0.007250239,-0.0399087209999999,-0.04538487,0.01099153,-0.01250026
2023-11-06 22:35:47.888999936,-0.08293077,-0.05916166,-0.02922738,-0.0002763556,-0.01486468,-0.001760093,-0.000355383,0.0004060313,-0.006898026,0.0055742502,0.0076562703,-0.0468067469999999,-0.04542399,0.01095811,-0.01261056
2023-11-06 22:35:47.905999872,-0.08283439,-0.05924189,-0.02918715,-0.002704563,-0.009304876,-0.00346133,-0.0008168498,-8.927071e-05,-0.007207216,0.0047574004,0.00756699959,-0.054013963,-0.04545693,0.01092932,-0.01272986
2023-11-06 22:35:47.921999872,-0.08268484,-0.0593311,-0.02925505,-0.00696383,-0.003687171,-0.002327016,-0.001470041,-0.0001408208,-0.007433669,0.0032873594,0.00742617879,-0.061447632,-0.04550491,0.01092865,-0.01284741
2023-11-06 22:35:47.938999808,-0.08258835,-0.05950265,-0.02930564,-0.008481386,0.003910138,-0.002672511,-0.001824805,-4.930946e-06,-0.007643947,0.0014625544,0.007421247844,-0.069091579,-0.04553658,0.01093138,-0.01297419
2023-11-06 22:35:47.956000000,-0.08265015,-0.05961685,-0.02933986,-0.004068619,0.007832142,-0.001501866,-0.002157843,0.0002510534,-0.007944568,-0.0006952885999999,0.007672301244,-0.077036147,-0.04557418,0.01094189,-0.01310606
2023-11-06 22:35:47.971000064,-0.08278941,-0.05968049,-0.02924754,0.003164406,0.007371026,-0.004038786,-0.002562607,0.0006968507,-0.008141,-0.0032578956,0.008369151944,-0.085177147,-0.04562699,0.01096169,-0.01323114
2023-11-06 22:35:47.986000128,-0.08296601,-0.05970423,-0.02925569,0.008978292,0.005814867,-0.001435199,-0.003023809,0.001275869,-0.008400656,-0.0062817046,0.009645020944,-0.0935778029999999,-0.04568578,0.01099976,-0.01335934
2023-11-06 22:35:48.000999936,-0.08313911,-0.05979158,-0.0292198,0.01343238,0.006565006,-0.00137675,-0.003142521,0.001744765,-0.008538108,-0.0094242256,0.011389785944,-0.1021159109999999,-0.04573882,0.01101588,-0.01348906
2023-11-06 22:35:48.013999872,-0.08328896,-0.05983961,-0.02909154,0.01640984,0.004304868,-0.005026045,-0.003320308,0.001783806,-0.008843984,-0.0127445336,0.013173591944,-0.1109598949999999,-0.04579706,0.01100798,-0.01362606
2023-11-06 22:35:48.028999936,-0.083313,-0.05995934,-0.02910272,0.01301964,0.007721224,-0.003683679,-0.003233245,0.001717706,-0.008978385,-0.0159777786,0.014891297944,-0.11993828,-0.04584084,0.01101824,-0.01376265
2023-11-06 22:35:48.046999808,-0.08337507,-0.06002593,-0.02897178,0.01299642,0.00676122,-0.008107304,-0.003258015,0.00165722,-0.009214066,-0.0192357936,0.016548517944,-0.129152346,-0.0458882,0.01102987,-0.01390252
2023-11-06 22:35:48.060000000,-0.08342491,-0.06006292,-0.02896731,0.01135652,0.005766647,-0.006336584,-0.003166676,0.001837949,-0.009376572,-0.0224024696,0.018386466944,-0.138528918,-0.04593096,0.0110516,-0.01403949
2023-11-06 22:35:48.073999872,-0.08356352,-0.06007569,-0.02906854,0.01281463,0.005499065,0.0006629729,-0.00292496,0.001771372,-0.009551509,-0.0253274296,0.020157838944,-0.148080427,-0.04597642,0.01104453,-0.01417563
2023-11-06 22:35:48.088000000,-0.08373423,-0.06011096,-0.02892465,0.01736407,0.003162251,-0.004776954,-0.002944395,0.002117893,-0.009707626,-0.0282718246,0.022275731944,-0.157788053,-0.04603038,0.01104163,-0.01431372
2023-11-06 22:35:48.101999872,-0.08401496,-0.06022811,-0.02888915,0.02421346,0.004815246,-0.005182809,-0.002955902,0.0019682,-0.009593762,-0.0312277266,0.024243931944,-0.167381815,-0.04607192,0.01105724,-0.01445123
2023-11-06 22:35:48.116000000,-0.08408106,-0.06030269,-0.02899821,0.02376548,0.006841963,0.001331264,-0.002924655,0.002104561,-0.009357618,-0.0341523816,0.026348492944,-0.176739433,-0.04611041,0.01109775,-0.0145792
2023-11-06 22:35:48.128999936,-0.08429985,-0.06022723,-0.02888258,0.02383055,0.004645438,0.004642894,-0.002999,0.002235532,-0.009227863,-0.0371513816,0.028584024944,-0.185967296,-0.04615752,0.01110323,-0.01470075
2023-11-06 22:35:48.142999808,-0.0842959,-0.0603869,-0.02914293,0.01648393,0.008203032,0.01266595,-0.002819777,0.002331714,-0.009024173,-0.0399711586,0.030915738944,-0.194991469,-0.04619167,0.01111758,-0.01483444
2023-11-06 22:35:48.157999872,-0.08442498,-0.06035188,-0.02923488,0.01353066,0.006315745,0.01077915,-0.002915899,0.001936658,-0.009273573,-0.0428870576,0.032852396944,-0.204265042,-0.04623785,0.01111746,-0.01497022
2023-11-06 22:35:48.172000000,-0.08434563,-0.06042844,-0.02924731,0.004916131,0.008090614,0.006310724,-0.002834958,0.001843018,-0.009325722,-0.0457220156,0.034695414944,-0.213590764,-0.04627364,0.01113802,-0.01510637
2023-11-06 22:35:48.184999936,-0.08439855,-0.0604867,-0.02915726,0.006469266,0.007030859,9.571222e-05,-0.003166579,0.00136955,-0.009610865,-0.0488885946,0.036064964944,-0.223201629,-0.0463272,0.01113664,-0.01525173
2023-11-06 22:35:48.200000000,-0.08437322,-0.06056134,-0.02909564,0.004202914,0.007268535,-0.003814061,-0.003501679,0.001027142,-0.009811491,-0.0523902736,0.037092106944,-0.23301312,-0.04639491,0.01114374,-0.01538294
2023-11-06 22:35:48.213999872,-0.08435958,-0.0606374,-0.02901898,0.002968186,0.007426991,-0.007450995,-0.003566186,0.0006880025,-0.009886116,-0.0559564596,0.037780109444,-0.242899236,-0.04645715,0.0111445,-0.01551069
2023-11-06 22:35:48.228000000,-0.08436336,-0.06067146,-0.0289952,0.002620359,0.006364851,-0.006438673,-0.00356837,9.46998e-05,-0.01005234,-0.0595248296,0.037874809244,-0.252951576,-0.04651101,0.01113073,-0.01565067
2023-11-06 22:35:48.243000064,-0.08430172,-0.06069693,-0.02899997,-0.001076494,0.005538712,-0.005205677,-0.003527418,-3.50701e-05,-0.01023789,-0.0630522476,0.037839739144,-0.263189466,-0.04655813,0.01112621,-0.01579897
2023-11-06 22:35:48.257999872,-0.08435766,-0.06079845,-0.02900501,0.002229857,0.008485514,-0.004338406,-0.003697535,-0.0001749042,-0.01037128,-0.0667497826,0.037664834944,-0.273560746,-0.0466304,0.01111534,-0.01595829
2023-11-06 22:35:48.272999936,-0.08448869,-0.06094141,-0.02899493,0.008956794,0.01226328,-0.003664623,-0.003843977,-0.0001497734,-0.01058367,-0.0705937596,0.037515061544,-0.284144416,-0.04673096,0.01110469,-0.01613247
2023-11-06 22:35:48.287000064,-0.08458448,-0.06112395,-0.02893879,0.009803221,0.01651122,-0.005651971,-0.003928832,6.190143e-05,-0.01072496,-0.0745225916,0.037576962974,-0.294869376,-0.04682687,0.01110029,-0.01630755
2023-11-06 22:35:48.303000064,-0.08453279,-0.06141058,-0.02900167,0.009561015,0.01977453,-0.007916999,-0.004055079,2.185168e-05,-0.01103978,-0.0785776706,0.037598814654,-0.305909156,-0.04688417,0.01110164,-0.01648631
2023-11-06 22:35:48.316999936,-0.08458151,-0.06143183,-0.02900876,0.004158776,0.02115043,-0.003840471,-0.004034342,-0.0001150562,-0.01143034,-0.0826120125999999,0.037483758454,-0.317339496,-0.04693964,0.01109665,-0.01665572
2023-11-06 22:35:48.331000064,-0.08443875,-0.06171443,-0.02910669,0.002530155,0.02441552,-0.0009458462,-0.003663129,-0.0002975301,-0.01147564,-0.0862751416,0.037186228354,-0.328815136,-0.04696818,0.01109566,-0.01683304
2023-11-06 22:35:48.340000000,-0.08435202,-0.06186271,-0.02911352,-0.003853498,0.02268175,0.001767606,-0.003520551,-0.0001436348,-0.0115678,-0.0897956925999999,0.037042593554,-0.340382936,-0.046997,0.01110069,-0.01700442
2023-11-06 22:35:48.352999936,-0.08430682,-0.06191088,-0.02918117,-0.001963346,0.02138545,0.006701903,-0.003135584,-0.0003467624,-0.01153336,-0.0929312765999999,0.036695831154,-0.351916296,-0.0470112,0.01109692,-0.01716669
2023-11-06 22:35:48.368000000,-0.08435351,-0.06197229,-0.02926151,-0.003865341,0.01843476,0.0006553502,-0.002732842,0.0005899519,-0.0114888,-0.0956641185999999,0.037285783054,-0.363405096,-0.04703503,0.01113542,-0.01732967
2023-11-06 22:35:48.381999872,-0.0846146,-0.06204338,-0.02930219,0.009300045,0.01529285,0.004193754,-0.00238997,0.0006836092,-0.01137223,-0.0980540885999999,0.037969392254,-0.374777326,-0.04705735,0.01114823,-0.01748974
2023-11-06 22:35:48.395000064,-0.08482877,-0.06202255,-0.02947562,0.01308973,0.01171444,0.009635265,-0.002259112,0.001238516,-0.01108896,-0.1003132005999999,0.039207908254,-0.385866286,-0.04708442,0.01118453,-0.01762769
2023-11-06 22:35:48.408000000,-0.08507733,-0.06198975,-0.02949618,0.01364578,0.006266003,0.01421208,-0.002115579,0.001974221,-0.01055794,-0.1024287795999999,0.041182129254,-0.396424226,-0.04710957,0.01121718,-0.01774218
2023-11-06 22:35:48.421999872,-0.08518763,-0.06197098,-0.02936233,0.02186314,0.00365391,0.007586684,-0.001762208,0.002156649,-0.01014247,-0.1041909875999999,0.043338778254,-0.406566696,-0.04712449,0.01123009,-0.01785661
2023-11-06 22:35:48.436999936,-0.08535164,-0.06188661,-0.02936121,0.02183941,-0.0005974632,0.006482181,-0.001929779,0.002040765,-0.009725939,-0.1061207666,0.045379543254,-0.416292635,-0.04715693,0.01125587,-0.0179747
2023-11-06 22:35:48.451000064,-0.08541741,-0.06199516,-0.02937805,0.01857536,-0.000297518,0.002293202,-0.002081575,0.001694483,-0.009381531,-0.1082023416,0.047074026254,-0.425674166,-0.04718868,0.01127147,-0.01810131
2023-11-06 22:35:48.464000000,-0.08532917,-0.06193398,-0.02936377,0.008851254,-0.002781254,0.0007831151,-0.002424426,0.001424522,-0.008904601,-0.1106267676,0.048498548254,-0.434578767,-0.0472495,0.01128962,-0.01821122
2023-11-06 22:35:48.477999872,-0.0853169,-0.06191517,-0.02943384,0.004742852,-0.001468052,0.004092732,-0.00247828,0.0009327031,-0.008366049,-0.1131050476,0.049431251354,-0.442944816,-0.04730811,0.01130069,-0.01831698
2023-11-06 22:35:48.490000128,-0.08530056,-0.0618851,-0.02937997,0.00215083,-0.002302732,0.001185777,-0.002865898,0.001101138,-0.007757318,-0.1159709456,0.050532389354,-0.450702134,-0.04737601,0.01132226,-0.01840921
2023-11-06 22:35:48.504000000,-0.08540601,-0.06185082,-0.02942952,0.004667328,-0.002529151,0.004076244,-0.003210943,0.0009181023,-0.007209681,-0.1191818886,0.051450491654,-0.457911815,-0.04743173,0.01132964,-0.018492
2023-11-06 22:35:48.517999872,-0.08549295,-0.06185018,-0.02945565,0.006791866,-0.001623712,0.004644629,-0.003584319,0.0006847879,-0.006632231,-0.1227662076,0.052135279554,-0.464544046,-0.04749293,0.01133338,-0.01856726
2023-11-06 22:35:48.532000000,-0.08553752,-0.06178737,-0.0294868,0.006360111,-0.003743601,0.005641123,-0.004228772,0.0005173077,-0.006055229,-0.1269949796,0.052652587254,-0.470599275,-0.04760779,0.01133234,-0.01860121
2023-11-06 22:35:48.546999808,-0.08549152,-0.0617907,-0.02951315,0.002339981,-0.002367218,0.004552449,-0.004670741,0.0004870806,-0.005457937,-0.1316657206,0.053139667854,-0.476057212,-0.04772578,0.01133402,-0.01862591
2023-11-06 22:35:48.561000192,-0.08549291,-0.06176031,-0.02946873,0.002072057,-0.003365601,0.001168326,-0.005221924,0.0001620558,-0.00487744,-0.1368876446,0.053301723654,-0.4809346520000001,-0.04783294,0.01132141,-0.01866096
2023-11-06 22:35:48.575000064,-0.08546209,-0.06172712,-0.02944559,0.0003012138,-0.003213086,-0.0004144971,-0.005477775,-0.000346948,-0.004146329,-0.1423654196,0.052954775654,-0.4850809810000001,-0.04791927,0.01130072,-0.01869513
2023-11-06 22:35:48.588000000,-0.08534861,-0.06159769,-0.02932806,-0.004373292,-0.008143838,-0.004963668,-0.006064504,-0.0004655647,-0.003511097,-0.1484299235999999,0.052489210954,-0.4885920780000001,-0.04802531,0.01128643,-0.01871577
2023-11-06 22:35:48.601999872,-0.08521631,-0.06153324,-0.02920176,-0.008740344,-0.008827131,-0.009449225,-0.006461113,-0.0009409327,-0.002912328,-0.1548910365999999,0.051548278254,-0.4915044060000001,-0.04813548,0.01127103,-0.01872096
2023-11-06 22:35:48.615000064,-0.08497861,-0.06135419,-0.02894681,-0.01231145,-0.01277707,-0.01370605,-0.007074826,-0.001756703,-0.002557969,-0.1619658625999999,0.049791575254,-0.4940623750000001,-0.04826169,0.01123097,-0.01872126
2023-11-06 22:35:48.631000064,-0.08466442,-0.06125262,-0.02882412,-0.02183164,-0.01632182,-0.01625024,-0.007650128,-0.00210231,-0.002255457,-0.1696159906,0.047689265254,-0.4963178320000001,-0.0483881,0.0111893,-0.01873096
2023-11-06 22:35:48.644000000,-0.08462261,-0.06120339,-0.02877938,-0.0182607,-0.01336758,-0.01640499,-0.007974175,-0.002566484,-0.001951722,-0.1775901656,0.045122781254,-0.4982695540000001,-0.04850885,0.01113684,-0.01874532
2023-11-06 22:35:48.656000000,-0.0845027,-0.06118965,-0.02848518,-0.01680264,-0.01232135,-0.02154678,-0.008479556,-0.002227323,-0.001667412,-0.1860697216,0.042895458254,-0.4999369660000001,-0.04864673,0.01109913,-0.01875571
2023-11-06 22:35:48.672000000,-0.0845878,-0.06109926,-0.02850013,-0.01673952,-0.01126288,-0.02151832,-0.009053076,-0.001996689,-0.001271652,-0.1951227975999999,0.0408987692539999,-0.501208618,-0.04881416,0.01106559,-0.01873963
2023-11-06 22:35:48.684999936,-0.08429804,-0.06118204,-0.0282384,-0.01390809,-0.007237882,-0.01857318,-0.009462769,-0.002135613,-0.0008966292,-0.2045855666,0.0387631562539999,-0.5021052472,-0.04898274,0.01100258,-0.01872689
2023-11-06 22:35:48.698999808,-0.08421749,-0.0613073,-0.028166,-0.01580227,-0.005948605,-0.02350623,-0.01001169,-0.002104786,-0.0006516768,-0.2145972565999999,0.036658370254,-0.502756924,-0.04914608,0.01096605,-0.01873046
2023-11-06 22:35:48.712000000,-0.08383352,-0.06129275,-0.02807767,-0.0169595,-0.003725532,-0.022712,-0.01036704,-0.002560002,-0.0004969394,-0.2249642965999999,0.034098368254,-0.5032538634,-0.0493016,0.0109123,-0.01873021
2023-11-06 22:35:48.726000128,-0.08375446,-0.06140088,-0.02787714,-0.01872228,0.0006577221,-0.02317327,-0.01049984,-0.002802537,-0.0003293899,-0.2354641365999999,0.031295831254,-0.5035832533,-0.04944648,0.01085799,-0.01873834
2023-11-06 22:35:48.740999936,-0.08369223,-0.06136476,-0.02780609,-0.0198884,0.002852383,-0.02236679,-0.01061249,-0.002562831,-0.0001956524,-0.2460766266,0.0287330002539999,-0.5037789057,-0.04958057,0.01083885,-0.01874566
2023-11-06 22:35:48.755000064,-0.0835477,-0.06147595,-0.02771717,-0.01604813,0.005831097,-0.02354881,-0.01065005,-0.00192301,-6.977236e-06,-0.2567266766,0.0268099902539999,-0.5037858829359999,-0.0497135,0.01083797,-0.01875767
2023-11-06 22:35:48.768000000,-0.08365959,-0.06160744,-0.02741523,-0.01009478,0.005451305,-0.02528377,-0.01063912,-0.001381337,0.0003096911,-0.2673657966,0.0254286532539999,-0.5034761918359999,-0.04986279,0.01081551,-0.01875145
2023-11-06 22:35:48.783000064,-0.08352282,-0.0616599,-0.02725202,-0.005994441,0.005171863,-0.02418813,-0.0105246,-0.001055896,0.0004875155,-0.2778903966,0.0243727572539999,-0.5029886763359999,-0.0500066,0.01080176,-0.01874121
2023-11-06 22:35:48.796000000,-0.08334038,-0.06170024,-0.02700212,-0.006548958,0.005170814,-0.02212409,-0.01032606,-0.0008690069,0.0008358058,-0.2882164566,0.0235037503539999,-0.5021528705359999,-0.05015673,0.01078099,-0.01871699
2023-11-06 22:35:48.808999936,-0.08339087,-0.061809,-0.02699799,-0.008524611,0.003093903,-0.01935416,-0.01024535,-0.0009720693,0.001147141,-0.2984618066,0.0225316810539999,-0.5010057295359999,-0.05031602,0.0107618,-0.01869135
2023-11-06 22:35:48.822000128,-0.08332406,-0.06185302,-0.02695931,-0.007969646,0.003107683,-0.02141714,-0.009985392,-0.001086101,0.001496893,-0.3084471985999999,0.0214455800539999,-0.4995088365359998,-0.05046212,0.01073976,-0.01865619
2023-11-06 22:35:48.836999936,-0.0832629,-0.061763,-0.02695026,-0.008950545,0.005215563,-0.01724155,-0.009563373,-0.001222654,0.002072329,-0.3180105715999999,0.0202229260539999,-0.4974365075359999,-0.05058292,0.01071983,-0.01860396
2023-11-06 22:35:48.851000064,-0.08292706,-0.06185707,-0.02671475,-0.01296933,0.002320221,-0.01943883,-0.009367079,-0.001442995,0.002488086,-0.3273776505999999,0.018779931054,-0.4949484215359999,-0.05070639,0.01067955,-0.01855964
2023-11-06 22:35:48.865999872,-0.08281692,-0.0619428,-0.02666696,-0.01571999,0.004555917,-0.01684611,-0.008917269,-0.001978568,0.003116786,-0.3362949195999999,0.016801363054,-0.4918316355359999,-0.05082556,0.01064651,-0.01851306
2023-11-06 22:35:48.880000000,-0.08250356,-0.0619515,-0.02679752,-0.02002618,0.002629405,-0.01359476,-0.008658035,-0.002077001,0.003713967,-0.3449529546,0.0147243620539999,-0.4881176685359999,-0.05095025,0.01064004,-0.01845803
2023-11-06 22:35:48.894000128,-0.08247038,-0.06193082,-0.02658901,-0.01975479,0.002622959,-0.01462142,-0.008068598,-0.002063252,0.00444852,-0.3530215525999999,0.0126611100539999,-0.4836691485359999,-0.05105411,0.01060991,-0.01838071
2023-11-06 22:35:48.907000064,-0.08230051,-0.06203203,-0.02636375,-0.01945719,0.001666291,-0.02008205,-0.007808469,-0.002172262,0.005382205,-0.3608300215999999,0.010488848054,-0.4782869435359999,-0.05115598,0.01056348,-0.01828223
2023-11-06 22:35:48.920000000,-0.08203912,-0.06200437,-0.02646535,-0.02548422,0.004228413,-0.02166923,-0.007695924,-0.002589097,0.006295949,-0.3685259455999999,0.0078997510539999,-0.4719909945359999,-0.05125926,0.01052116,-0.01816451
2023-11-06 22:35:48.933000192,-0.08168434,-0.06217368,-0.02626348,-0.0314633,0.008767791,-0.01880828,-0.007421424,-0.003237828,0.007433804,-0.3759473695999999,0.0046619230539999,-0.4645571905359999,-0.05137986,0.01044654,-0.01804193
2023-11-06 22:35:48.947000064,-0.0811574,-0.06217307,-0.02652887,-0.03973829,0.009255531,-0.01659809,-0.007238299,-0.003962683,0.008373593,-0.3831856686,0.0006992400539999,-0.4561835975359999,-0.05150191,0.01039023,-0.01790415
2023-11-06 22:35:48.964000000,-0.08067006,-0.06236024,-0.02661607,-0.05204264,0.01395799,-0.006593314,-0.006845509,-0.00470085,0.009375389,-0.3900311775999999,-0.004001609946,-0.4468082085359999,-0.05159598,0.01031009,-0.01775727
2023-11-06 22:35:48.979000064,-0.08005216,-0.06247869,-0.02656878,-0.06558742,0.01588895,-0.009108797,-0.006444726,-0.005193561,0.01006328,-0.3964759035999999,-0.009195170946,-0.4367449285359999,-0.0516738,0.0102224,-0.01760227
2023-11-06 22:35:48.991000064,-0.07947991,-0.06250156,-0.02655441,-0.06761952,0.01843178,-0.01732039,-0.00603882,-0.005654722,0.01059294,-0.4025147235999999,-0.014849892946,-0.4261519885359999,-0.05175094,0.01013501,-0.01744368
2023-11-06 22:35:49.005000192,-0.07892911,-0.06259823,-0.02646247,-0.07314891,0.01661902,-0.01774318,-0.006164613,-0.006133892,0.01085592,-0.4086793365999999,-0.020983784946,-0.4152960685359999,-0.05186282,0.01005167,-0.01731029
2023-11-06 22:35:49.020000000,-0.07845629,-0.06274725,-0.02647514,-0.07330253,0.0187293,-0.01664464,-0.006054296,-0.0066486,0.0111309,-0.4147336325999999,-0.027632384946,-0.4041651685359999,-0.05196319,0.009965159,-0.01717603
2023-11-06 22:35:49.032999936,-0.07785155,-0.06289525,-0.02660757,-0.0724862,0.02308471,-0.01852966,-0.005832142,-0.006989025,0.01147435,-0.4205657745999999,-0.034621409946,-0.3926908185359998,-0.05203996,0.009871153,-0.01701839
2023-11-06 22:35:49.046000128,-0.0774281,-0.06309676,-0.02666134,-0.07193727,0.02596775,-0.01168084,-0.005722872,-0.007124911,0.01155804,-0.4262886465999999,-0.041746320946,-0.3811327785359998,-0.05211406,0.009772261,-0.0168667
2023-11-06 22:35:49.060000000,-0.07698879,-0.06327888,-0.02657031,-0.06773039,0.02778407,-0.01047627,-0.00546477,-0.006973738,0.01166785,-0.4317534165999999,-0.048720058946,-0.3694649285359999,-0.05218451,0.009670878,-0.01671041
2023-11-06 22:35:49.075000064,-0.07650603,-0.06354532,-0.02701449,-0.06641226,0.0320765,-0.010022,-0.005024487,-0.006723315,0.01165874,-0.4367779035999999,-0.055443373946,-0.3578061885359999,-0.05226236,0.009574448,-0.01656872
2023-11-06 22:35:49.088000000,-0.0759937,-0.06372377,-0.0270328,-0.06647602,0.03100868,-0.01006924,-0.004732526,-0.006880545,0.01137846,-0.4415104296,-0.062323918946,-0.3464277285359999,-0.05234423,0.009439667,-0.01643224
2023-11-06 22:35:49.101999872,-0.07551969,-0.06378661,-0.02704161,-0.06852694,0.03115668,-0.01059526,-0.004221099,-0.007259318,0.01110814,-0.4457315286,-0.069583236946,-0.3353195885359999,-0.05239227,0.009320756,-0.01628943
2023-11-06 22:35:49.116000000,-0.07498472,-0.0640146,-0.0270426,-0.06903871,0.03024277,-0.0129941,-0.003719987,-0.007576108,0.01095986,-0.4494515155999999,-0.0771593449459999,-0.3243597285359999,-0.05242718,0.009207519,-0.01615402
2023-11-06 22:35:49.130000128,-0.07455034,-0.06420481,-0.02719677,-0.06971966,0.02807396,-0.01106659,-0.003135921,-0.007267328,0.01080133,-0.4525874365999999,-0.084426672946,-0.3135583985359999,-0.05246335,0.009132363,-0.01600915
2023-11-06 22:35:49.144000000,-0.07424904,-0.06428099,-0.02719776,-0.06138108,0.02727586,-0.005429475,-0.002472902,-0.006627977,0.01063865,-0.4550603385999999,-0.0910546499459999,-0.3029197485359999,-0.05249642,0.009071356,-0.01585443
2023-11-06 22:35:49.157000192,-0.07421022,-0.06418593,-0.02724734,-0.05115972,0.0212831,-0.003912563,-0.001876792,-0.005364086,0.01052202,-0.4569371305999999,-0.0964187359459999,-0.2923977285359999,-0.05251947,0.009048048,-0.01569619
2023-11-06 22:35:49.170000128,-0.07389966,-0.06428282,-0.02726315,-0.04263222,0.01465851,-0.008469,-0.001285313,-0.004151986,0.01024448,-0.4582224436,-0.1005707219459999,-0.2821532485359999,-0.05251722,0.009028988,-0.01556723
2023-11-06 22:35:49.184000000,-0.07377432,-0.06446216,-0.02735589,-0.03540729,0.01520825,-0.006445297,-0.0002199239,-0.003691,0.01006697,-0.4584423674999999,-0.1042617219459999,-0.2720862785359998,-0.05248532,0.008998079,-0.01544468
2023-11-06 22:35:49.198999808,-0.07352435,-0.06439899,-0.02739874,-0.03264099,0.009685602,-0.005886209,0.0004589364,-0.00364934,0.009633228,-0.4579834310999999,-0.1079110619459999,-0.2624530505359999,-0.05245636,0.008942325,-0.0153357
2023-11-06 22:35:49.212999936,-0.07336342,-0.06442231,-0.02754719,-0.03472597,0.01017806,0.005758491,0.001489423,-0.003411102,0.009541744,-0.4564940080999999,-0.1113221639459999,-0.2529113065359998,-0.05240593,0.008897786,-0.01522845
2023-11-06 22:35:49.227000064,-0.07331619,-0.06412239,-0.02766645,-0.02939099,0.003536688,0.004763031,0.002235329,-0.0029003,0.009283837,-0.4542586790999999,-0.1142224639459999,-0.2436274695359998,-0.05234944,0.008875448,-0.01509955
2023-11-06 22:35:49.240999936,-0.0731777,-0.06410183,-0.02765203,-0.02452033,-0.001097698,0.005913759,0.003092097,-0.002460558,0.009046321,-0.4511665820999999,-0.1166830219459999,-0.2345811485359998,-0.05228144,0.008855615,-0.01497967
2023-11-06 22:35:49.255000064,-0.07306524,-0.06405449,-0.02760541,-0.02042285,-0.003264686,0.002522762,0.003681747,-0.00209966,0.008737413,-0.4474848350999999,-0.1187826819459999,-0.2258437355359998,-0.05221292,0.008836545,-0.01486431
2023-11-06 22:35:49.268000000,-0.07299109,-0.06392245,-0.02769755,-0.02015929,-0.006629444,0.004668343,0.004286784,-0.001844095,0.008416887,-0.4431980510999999,-0.1206267769459999,-0.2174268485359998,-0.05216223,0.008833801,-0.01480033
2023-11-06 22:35:49.280999936,-0.07274695,-0.06381011,-0.02767192,-0.02066705,-0.007522126,0.002266434,0.005183251,-0.001488732,0.008097135,-0.4380148000999999,-0.122115508946,-0.2093297135359998,-0.0520946,0.00883187,-0.01474792
2023-11-06 22:35:49.296999936,-0.07259209,-0.06377335,-0.0278288,-0.02107978,-0.009684492,0.003151232,0.005909242,-0.001335285,0.007788854,-0.4321055580999999,-0.123450793946,-0.2015408595359998,-0.05200649,0.008831748,-0.01467857
2023-11-06 22:35:49.308999936,-0.07241724,-0.0635853,-0.02807611,-0.02472343,-0.007690951,0.008897593,0.006645787,-0.001422281,0.007491052,-0.4254597710999999,-0.124873074946,-0.1940498075359998,-0.05189151,0.008824677,-0.01457355
2023-11-06 22:35:49.323000064,-0.07232355,-0.06356622,-0.02808148,-0.02216338,-0.006975501,0.01186638,0.007256301,-0.001650978,0.007503968,-0.4182034700999999,-0.126524052946,-0.1865458395359998,-0.05177327,0.008794312,-0.0144688
2023-11-06 22:35:49.336999936,-0.07229467,-0.06344192,-0.0282339,-0.02209277,-0.00406612,0.0164744,0.007974226,-0.001762495,0.007408806,-0.4102292440999999,-0.128286547946,-0.1791370335359998,-0.05166203,0.00876805,-0.01437749
2023-11-06 22:35:49.348999936,-0.07227984,-0.06360386,-0.0282876,-0.01890996,-0.002183101,0.01744204,0.008580549,-0.001547123,0.007423261,-0.4016486950999999,-0.129833670946,-0.1717137725359998,-0.05154349,0.008746818,-0.0142995
2023-11-06 22:35:49.364999936,-0.07217773,-0.06339981,-0.02871506,-0.01822185,-0.001522563,0.02321872,0.009215723,-0.001357475,0.00740244,-0.3924329720999999,-0.131191145946,-0.1643113325359998,-0.05140224,0.008758041,-0.01419164
2023-11-06 22:35:49.380000000,-0.07199506,-0.06345266,-0.02888805,-0.02090364,-0.000699763,0.0291664,0.01004692,-0.001729301,0.007305486,-0.3823860520999999,-0.132920446946,-0.1570058465359998,-0.05123489,0.008733667,-0.01409616
2023-11-06 22:35:49.392999936,-0.07183035,-0.06329025,-0.02899643,-0.0260157,-0.002117295,0.02324309,0.0104836,-0.001935915,0.007193802,-0.3719024520999999,-0.134856361946,-0.1498120445359998,-0.05108295,0.008705135,-0.01399056
2023-11-06 22:35:49.408000000,-0.07161113,-0.06315981,-0.02906183,-0.02608749,-0.005016307,0.01864253,0.01087034,-0.002208454,0.006916122,-0.3610321120999999,-0.137064815946,-0.1428959225359998,-0.05095795,0.008652871,-0.01389837
2023-11-06 22:35:49.420999936,-0.0716456,-0.06323659,-0.02907641,-0.02230111,-0.007220108,0.01624736,0.01146983,-0.00195831,0.006795789,-0.3495622820999999,-0.139023125946,-0.1361001335359998,-0.05081295,0.00861331,-0.01381493
2023-11-06 22:35:49.435000064,-0.07169197,-0.06283583,-0.02933491,-0.01482852,-0.01193009,0.01587255,0.01197678,-0.001216101,0.006837977,-0.3375855020999999,-0.140239226946,-0.1292621565359998,-0.05064223,0.008634226,-0.01369748
2023-11-06 22:35:49.448000000,-0.07179341,-0.0625829,-0.02942032,-0.005074238,-0.01600887,0.0194692,0.01255619,-0.0004117681,0.006809703,-0.3250293120999999,-0.1406509950459999,-0.1224524535359998,-0.0504522,0.008659323,-0.01358962
2023-11-06 22:35:49.461999872,-0.07198236,-0.06256439,-0.02949574,0.002123357,-0.01736601,0.01695887,0.01302809,0.0005026273,0.006894769,-0.3120012220999999,-0.1401483677459999,-0.1155576845359998,-0.05029009,0.008691696,-0.01348348
2023-11-06 22:35:49.476000000,-0.07223459,-0.06244977,-0.02948039,0.003046974,-0.01772469,0.02164107,0.01315261,0.001056772,0.00684564,-0.2988486120999999,-0.1390915957459999,-0.1087120445359998,-0.05016632,0.008709012,-0.01336977
2023-11-06 22:35:49.490000128,-0.07217836,-0.06241423,-0.02984171,0.006936575,-0.01365716,0.02069462,0.01342457,0.001322013,0.006960027,-0.2854240420999999,-0.1377695827459999,-0.1017520175359998,-0.05002158,0.008746125,-0.01325723
2023-11-06 22:35:49.505000192,-0.07228731,-0.06225827,-0.02990777,0.009662267,-0.01083563,0.0237944,0.01377223,0.001155335,0.006890938,-0.2716518120999999,-0.1366142477459999,-0.0948610795359998,-0.04982043,0.008762067,-0.01315414
2023-11-06 22:35:49.519000064,-0.07228891,-0.06219684,-0.03020087,0.005951687,-0.00755374,0.02626402,0.01398684,0.001008827,0.007029145,-0.2576649720999999,-0.1356054207459999,-0.0878319345359998,-0.04961815,0.008790849,-0.01304992
2023-11-06 22:35:49.532000000,-0.07233953,-0.06235099,-0.03038519,0.002373239,-0.002140496,0.02888465,0.0143336,0.000804742,0.007177552,-0.2433313720999999,-0.1348006787459999,-0.0806543825359998,-0.04942647,0.008825587,-0.0129665
2023-11-06 22:35:49.546000128,-0.07243755,-0.06218365,-0.03064911,0.003200702,-0.001217002,0.0302596,0.01463714,0.001417184,0.007469199,-0.2286942320999999,-0.1333834947459999,-0.0731851835359998,-0.04924245,0.008905164,-0.0128602
2023-11-06 22:35:49.560000000,-0.07265704,-0.06205067,-0.03090652,0.01160301,-0.002945167,0.031367,0.01488776,0.00184524,0.007658939,-0.2138064720999999,-0.1315382547459999,-0.0655262445359998,-0.04904659,0.008975194,-0.01275231
2023-11-06 22:35:49.573999872,-0.07292397,-0.06201603,-0.0310739,0.01548995,-0.002280391,0.03357014,0.01536834,0.002073449,0.007906022,-0.1984381320999999,-0.1294648057459999,-0.0576202225359998,-0.04881828,0.009020083,-0.01263485
2023-11-06 22:35:49.586999808,-0.07293185,-0.06189945,-0.03118505,0.01616699,-0.003489753,0.03479876,0.01573176,0.002083951,0.008111406,-0.1827063720999998,-0.1273808547459999,-0.0495088165359998,-0.04858921,0.009058396,-0.01250915
2023-11-06 22:35:49.601999872,-0.07300775,-0.0617539,-0.03144995,0.0111906,-0.005100683,0.03224783,0.01617274,0.001934174,0.00816923,-0.1665336320999998,-0.1254466807459999,-0.0413395865359998,-0.04838762,0.009089271,-0.01239208
2023-11-06 22:35:49.616000000,-0.07306378,-0.0616931,-0.0315682,0.004617008,-0.006700664,0.03148855,0.01665046,0.001341598,0.008224288,-0.1498831720999998,-0.1241050827459999,-0.0331152985359998,-0.04817802,0.009087333,-0.0122786
2023-11-06 22:35:49.631000064,-0.07304419,-0.0615894,-0.0318816,-0.003367081,-0.008534982,0.03587374,0.01706468,0.0008919752,0.008125646,-0.1328184920999998,-0.1232131075459999,-0.0249896525359998,-0.04794358,0.009100275,-0.01216605
2023-11-06 22:35:49.644000000,-0.07290827,-0.0615249,-0.03228026,-0.005426371,-0.008361191,0.03531829,0.01766227,0.0009029542,0.008167421,-0.1151562220999998,-0.1223101533459999,-0.0168222315359998,-0.04767793,0.009138183,-0.01204837
2023-11-06 22:35:49.656000000,-0.07304503,-0.06133296,-0.03232121,-0.006866836,-0.01041332,0.03594106,0.01803157,0.00107461,0.008057744,-0.0971246520999998,-0.1212355433459999,-0.0087644875359998,-0.04742135,0.009160632,-0.01193335
2023-11-06 22:35:49.671000064,-0.07290681,-0.06112479,-0.03267059,-0.008805629,-0.01152984,0.03868159,0.01831756,0.001162307,0.007723769,-0.0788070920999998,-0.1200732363459999,-0.0010407185359998,-0.04720116,0.009189634,-0.01187947
2023-11-06 22:35:49.684999936,-0.07280011,-0.06091277,-0.03311807,-0.01188212,-0.01046395,0.04232199,0.0187725,0.001144142,0.007323508,-0.0600345920999998,-0.1189290943459999,0.0062827894640001,-0.04697424,0.009249926,-0.01184715
2023-11-06 22:35:49.700000000,-0.07307085,-0.06069012,-0.03326001,-0.01034558,-0.01384157,0.0437055,0.01900911,0.001124013,0.007032785,-0.0410254820999998,-0.1178050813459999,0.0133155744640001,-0.04671548,0.009213827,-0.01177055
2023-11-06 22:35:49.713999872,-0.07324792,-0.06053486,-0.03354594,-0.003998983,-0.01779438,0.04746874,0.0191197,0.001079379,0.006869589,-0.0219057820999998,-0.1167257023459999,0.0201851634640001,-0.04644211,0.009268305,-0.0116568
2023-11-06 22:35:49.728000000,-0.07342064,-0.06039947,-0.03370082,0.007261431,-0.02046457,0.0415407,0.01892235,0.001173019,0.00700593,-0.0029834320999998,-0.1155526833459999,0.0271910934640001,-0.04619179,0.009274257,-0.01152971
2023-11-06 22:35:49.742000128,-0.07343654,-0.06005801,-0.03391014,0.009605348,-0.021425,0.03657815,0.01857467,0.001109855,0.007139661,0.0155912379000001,-0.1144428283459999,0.0343307544640001,-0.04599122,0.009280164,-0.01141179
2023-11-06 22:35:49.755000064,-0.07347715,-0.05989018,-0.03421654,0.007377795,-0.0225633,0.04035707,0.01825782,0.0007432807,0.007144255,0.0338490579000001,-0.1136995476459999,0.0414750094640001,-0.04577805,0.00926904,-0.01129785
2023-11-06 22:35:49.768999936,-0.07344192,-0.05962649,-0.03448372,0.001901159,-0.02314933,0.03996382,0.01800775,0.0004241107,0.00698396,0.0518568079000001,-0.1132754369459999,0.0484589694640001,-0.04553553,0.009285017,-0.01118995
2023-11-06 22:35:49.783000064,-0.07323575,-0.0593278,-0.03490847,-0.01388583,-0.02529552,0.04450078,0.0175714,3.51221e-05,0.006529076,0.0694282079000001,-0.1132403148459999,0.0549880454640001,-0.04530431,0.009303254,-0.01109556
2023-11-06 22:35:49.796999936,-0.07293262,-0.05923344,-0.03484583,-0.02356661,-0.02181333,0.03653066,0.01742255,-0.0001500477,0.006010331,0.0868507579000001,-0.1133903625459999,0.0609983764640001,-0.04507321,0.009307954,-0.01105112
2023-11-06 22:35:49.809999872,-0.07286271,-0.05892022,-0.03482759,-0.0255456,-0.02521076,0.02592261,0.01665402,0.0002374696,0.00526323,0.1035047779000001,-0.1131528929459999,0.0662616064640001,-0.04487723,0.009347548,-0.01103541
2023-11-06 22:35:49.824999936,-0.07295126,-0.05876052,-0.03490302,-0.0169306,-0.02781112,0.02146729,0.01577793,0.000852492,0.004516255,0.1192827079000001,-0.1123004009459999,0.0707778614640001,-0.04468994,0.009399923,-0.01102392
2023-11-06 22:35:49.839000064,-0.07319671,-0.05862568,-0.03472419,-0.002640556,-0.02538502,0.01430652,0.01526959,0.001484736,0.00389245,0.1345522979000001,-0.1108156649459999,0.0746703114640001,-0.04449516,0.009427617,-0.01098057
2023-11-06 22:35:49.852000000,-0.07326838,-0.05842753,-0.03492406,0.004421846,-0.02721161,0.01608641,0.01466019,0.001800493,0.003263357,0.1492124879000001,-0.1090151719459999,0.0779336684640001,-0.04431047,0.009474853,-0.0109436
2023-11-06 22:35:49.865999872,-0.07348689,-0.05821823,-0.03486213,0.01018111,-0.02973072,0.01418017,0.01393269,0.001729535,0.002509189,0.1631451779000001,-0.1072856369459999,0.0804428574640001,-0.04415669,0.009456898,-0.01092614
2023-11-06 22:35:49.879000064,-0.0737296,-0.05804144,-0.03481623,0.01301497,-0.02695596,0.01725387,0.01326128,0.001332088,0.001886655,0.1764064579000001,-0.1059535489459999,0.0823295124640001,-0.04401211,0.009417545,-0.01091545
2023-11-06 22:35:49.892999936,-0.07385738,-0.05801751,-0.03513884,0.01390228,-0.02265094,0.01546959,0.01265438,0.00109635,0.001427679,0.1890608379,-0.1048571989459999,0.0837571914640001,-0.04386336,0.009420331,-0.01091407
2023-11-06 22:35:49.908000000,-0.07387834,-0.05784921,-0.03501903,0.01454755,-0.01601805,0.01147317,0.0121642,0.0008873077,0.00120504,0.2012250379,-0.1039698912459999,0.0849622314640001,-0.04371125,0.00942064,-0.01089344
2023-11-06 22:35:49.920999936,-0.07393458,-0.05787353,-0.03484966,0.01170133,-0.01641807,0.005202354,0.01122011,0.0008917979,0.001040448,0.2124451479,-0.1030780933459999,0.0860026794640001,-0.04358446,0.009421043,-0.01088533
2023-11-06 22:35:49.936000000,-0.07402603,-0.05782157,-0.03500273,0.01217152,-0.01112444,0.005534911,0.01071589,0.0008104398,0.001044914,0.2231610379,-0.1022676535459999,0.0870475934640001,-0.04346064,0.009458236,-0.01085573
2023-11-06 22:35:49.950000128,-0.07409356,-0.05784187,-0.03503849,0.01153097,-0.00678009,0.00554308,0.01023092,0.001090061,0.001021699,0.2333919579,-0.1011775925459999,0.0880692924640001,-0.04334624,0.009507457,-0.01082982
2023-11-06 22:35:49.964000000,-0.07420452,-0.05782555,-0.03504817,0.01292035,-0.005791266,0.004839615,0.009747784,0.001537016,0.0009275709,0.2431397419000001,-0.0996405765459999,0.0889968633640001,-0.04323141,0.009553343,-0.01081287
2023-11-06 22:35:49.976999936,-0.07427725,-0.05782971,-0.03517308,0.01111256,-0.00266786,0.008908289,0.009652145,0.001978479,0.0009442712,0.2527918869000001,-0.0976620975459999,0.0899411345640001,-0.04309972,0.009600595,-0.01080086
2023-11-06 22:35:49.991000064,-0.07445736,-0.05787452,-0.03513166,0.01545369,-0.0007238894,0.005693753,0.009593324,0.002261276,0.0009603522,0.2623852109000001,-0.0954008215459999,0.0909014867640001,-0.04296837,0.00963098,-0.01078813
2023-11-06 22:35:50.006000128,-0.07458956,-0.05789441,-0.03516578,0.01630742,0.0001856331,0.007053987,0.009522649,0.002366893,0.0009513861,0.2719078599000001,-0.0930339285459999,0.0918528728640001,-0.04283575,0.009643086,-0.01076587
2023-11-06 22:35:50.017999872,-0.07460541,-0.05795626,-0.03527338,0.01040141,0.003760202,0.01007207,0.009678061,0.002456766,0.0008657339,0.2815859209000001,-0.0905771625459999,0.0927186067640001,-0.04269254,0.009660495,-0.01075044
2023-11-06 22:35:50.032999936,-0.0747159,-0.05805574,-0.0355726,0.01015529,0.007387321,0.02118258,0.0100044,0.001991698,0.0009939284,0.2915903209000001,-0.0885854645459999,0.0937125351640001,-0.04254115,0.00968549,-0.01073928
2023-11-06 22:35:50.046999808,-0.07475816,-0.05796602,-0.03571303,0.00531076,0.008521019,0.02768365,0.01051476,0.001890546,0.001056341,0.3021050809000001,-0.0866949185459999,0.0947688761640001,-0.04238079,0.009717395,-0.01071828
2023-11-06 22:35:50.061000192,-0.07465177,-0.05808406,-0.03597039,0.0003933111,0.008308774,0.02088896,0.01066379,0.002155916,0.00115567,0.3127688709000001,-0.0845390025459999,0.0959245461640001,-0.04223942,0.009784223,-0.01070527
2023-11-06 22:35:50.075000064,-0.07474871,-0.05805454,-0.03624046,-0.0006100597,0.006087112,0.02385532,0.01054993,0.001780652,0.0008983143,0.3233188009000001,-0.0827583505459999,0.0968228604640001,-0.04213678,0.009857995,-0.01069188
2023-11-06 22:35:50.086999808,-0.07472148,-0.05800773,-0.03623972,0.0003040577,0.007252979,0.0208234,0.01076086,0.001749061,0.0007815904,0.3340796609000001,-0.0810092895459999,0.0976044508640001,-0.04202107,0.009923776,-0.01067457
2023-11-06 22:35:50.101999872,-0.0747669,-0.05788742,-0.03625849,0.0006252509,-0.0002669008,0.02063541,0.01078877,0.001775417,0.0004800736,0.3448684309000001,-0.0792338725459999,0.0980845244640001,-0.04187261,0.009953491,-0.01066921
2023-11-06 22:35:50.116000000,-0.07495181,-0.05781882,-0.03646748,0.002854876,-0.003849263,0.02329693,0.0110993,0.001583874,0.0003232545,0.3559677309000001,-0.0776499985459999,0.0984077789640001,-0.04170721,0.009982216,-0.01066641
2023-11-06 22:35:50.130000128,-0.07499982,-0.05762772,-0.03669478,0.0006599081,-0.002585881,0.02386416,0.01142794,0.001501092,0.0002454411,0.3673956709000001,-0.0761489065459999,0.0986532200640001,-0.04152409,0.0100058,-0.01065065
2023-11-06 22:35:50.144000000,-0.07492063,-0.05771126,-0.03671546,0.001084112,-0.003579273,0.02173457,0.01138756,0.001080914,-9.744545e-06,0.3787832309000001,-0.0750679925459999,0.0986434755190001,-0.04134317,0.009994256,-0.01065671
2023-11-06 22:35:50.157999872,-0.07498647,-0.05762583,-0.03708967,-0.001666149,-0.002389687,0.0243727,0.01141851,0.001024524,-6.760168e-05,0.3902017409000001,-0.0740434685459999,0.0985758738390001,-0.04116585,0.01001825,-0.01065147
2023-11-06 22:35:50.172000000,-0.07503378,-0.05768158,-0.037176,0.001123947,-0.0004376492,0.02295877,0.01149337,0.001002687,-0.0001451069,0.4016951109000001,-0.0730407815459999,0.0984307669390001,-0.04100353,0.01003675,-0.01065984
2023-11-06 22:35:50.187000064,-0.07493562,-0.05767687,-0.03731999,0.0005839756,-0.0005193549,0.02502383,0.01149122,0.0009084807,-0.0002294549,0.4131863309000002,-0.0721323008459999,0.0982013120390001,-0.04084408,0.01005586,-0.01066565
2023-11-06 22:35:50.197999872,-0.07509751,-0.05741818,-0.03735717,0.001787975,-0.001655816,0.02419468,0.01129974,0.0008645701,-0.0004426179,0.4244860709000002,-0.0712677307459999,0.0977586941390001,-0.0406578,0.01008913,-0.01069015
2023-11-06 22:35:50.213999872,-0.07524028,-0.05745709,-0.0375696,0.007167664,-0.002215773,0.02447069,0.01116549,0.0008462088,-0.0006455092,0.4356515609000002,-0.0704215219459999,0.0971131849390001,-0.04045872,0.01013919,-0.01074249
2023-11-06 22:35:50.227000064,-0.07533361,-0.05736138,-0.0375752,0.009430918,-0.003218993,0.01950259,0.0109119,0.001304749,-0.0009187664,0.4465634609000001,-0.0691167729459999,0.0961944185390001,-0.04029191,0.01018607,-0.01077479
2023-11-06 22:35:50.240999936,-0.07539397,-0.05736652,-0.03763222,0.01023635,-0.005453483,0.01964046,0.0105306,0.00169981,-0.001191702,0.4570940609000001,-0.0674169629459999,0.0950027165390001,-0.04015626,0.01022618,-0.01080003
2023-11-06 22:35:50.256000000,-0.07546329,-0.05724926,-0.03772847,0.009910826,-0.006291704,0.01621529,0.01031726,0.001911047,-0.001399415,0.4674113209000001,-0.0655059159459999,0.0936033015390001,-0.04001848,0.01026593,-0.01081836
2023-11-06 22:35:50.268000000,-0.07556108,-0.05724651,-0.03776899,0.009914397,-0.006276056,0.01621742,0.01020106,0.001688428,-0.001688791,0.4776123809000001,-0.0638174879459999,0.0919145105390001,-0.03986095,0.01026355,-0.01083796
2023-11-06 22:35:50.282000128,-0.07561125,-0.05718805,-0.03788953,0.006999454,-0.006938072,0.01433994,0.009928396,0.001521745,-0.002017467,0.4875407769000001,-0.0622957429459999,0.0898970435390001,-0.03970888,0.01026363,-0.01085796
2023-11-06 22:35:50.296000000,-0.07566187,-0.05718467,-0.03796183,0.006460443,-0.004668316,0.01316989,0.009728384,0.001470871,-0.00243578,0.4972691609000001,-0.0608248719459999,0.0874612635390001,-0.03956765,0.01027307,-0.01089674
2023-11-06 22:35:50.311000064,-0.07581418,-0.05715041,-0.03800419,0.01109052,-0.005089865,0.01214788,0.009307423,0.001294342,-0.002952925,0.5065765839000002,-0.0595305299459999,0.0845083385390001,-0.03945015,0.01028807,-0.01095185
2023-11-06 22:35:50.324999936,-0.07592021,-0.05716993,-0.03811113,0.01217211,-0.002064763,0.01361656,0.009102001,0.001369686,-0.003377823,0.5156785849000002,-0.0581608439459999,0.0811305155390001,-0.03932748,0.01031945,-0.01101059
2023-11-06 22:35:50.339000064,-0.07602814,-0.05702698,-0.03821889,0.01111171,-0.002188391,0.01774412,0.008875932,0.001597467,-0.003769542,0.5245545169000002,-0.0565633769459999,0.0773609735390001,-0.03920544,0.01037469,-0.01105139
2023-11-06 22:35:50.352999936,-0.07613707,-0.05705048,-0.03844672,0.01201722,-0.003374238,0.01794829,0.008442311,0.001848528,-0.00424341,0.5329968279000002,-0.0547148489459999,0.0731175635390001,-0.03909267,0.01043831,-0.01111194
2023-11-06 22:35:50.365999872,-0.07621615,-0.0570686,-0.03846642,0.01034788,-0.002034572,0.01645464,0.008219828,0.002043719,-0.004780469,0.5412166559000002,-0.0526711299459999,0.0683370945390001,-0.03898296,0.01047585,-0.01119274
2023-11-06 22:35:50.380000000,-0.07639916,-0.05703394,-0.03861256,0.009967904,-0.003116769,0.01742987,0.007853901,0.00186431,-0.005475501,0.5490705569000003,-0.0508068199459999,0.0628615935390001,-0.03888441,0.01050259,-0.01128923
2023-11-06 22:35:50.392999936,-0.07639585,-0.05694461,-0.03867936,0.008835965,-0.004048602,0.01710562,0.007571524,0.001840747,-0.006228512,0.5566420809000003,-0.0489660729459999,0.0566330815390001,-0.03878088,0.01051514,-0.01139294
2023-11-06 22:35:50.408000000,-0.07643728,-0.05692148,-0.03875945,0.009669599,-0.00837585,0.01609914,0.006990054,0.001896017,-0.007115846,0.5636321349000003,-0.0470700559459999,0.0495172355390001,-0.03868021,0.01050567,-0.01151484
2023-11-06 22:35:50.420999936,-0.07659923,-0.05655338,-0.03890837,0.01313498,-0.009994501,0.01913499,0.006739055,0.002002091,-0.008022531,0.5703711899000004,-0.0450679649459999,0.0414947045390001,-0.03857507,0.01050746,-0.01162966
2023-11-06 22:35:50.440000000,-0.07681369,-0.05652811,-0.03895148,0.01597547,-0.01247592,0.01980461,0.006397702,0.002787591,-0.008790853,0.5767688919000004,-0.0422803739459999,0.0327038515390001,-0.03849577,0.01057039,-0.01177456
2023-11-06 22:35:50.448999936,-0.07724429,-0.05632834,-0.03913297,0.02261565,-0.01571573,0.02693831,0.005956744,0.003416817,-0.009510349,0.5827256359000004,-0.0388635569459999,0.0231935025390001,-0.03842585,0.01064739,-0.01191851
2023-11-06 22:35:50.463000064,-0.07759292,-0.056199,-0.03923139,0.029959,-0.01971673,0.02651952,0.005370826,0.004319063,-0.01007933,0.5880964619000004,-0.0345444939459999,0.0131141725390001,-0.03837462,0.01075999,-0.01208118
2023-11-06 22:35:50.476000000,-0.07776944,-0.05605172,-0.0394095,0.02902105,-0.01876028,0.03070614,0.004957328,0.004965958,-0.01062734,0.5930537899000005,-0.0295785359459999,0.0024868325390001,-0.03832845,0.01089248,-0.0122582
2023-11-06 22:35:50.490000128,-0.07803032,-0.05560252,-0.03964209,0.02961681,-0.02522403,0.02958091,0.00400096,0.005335425,-0.01107272,0.5970547499000005,-0.0242431109459999,-0.0085858874609998,-0.03831212,0.01101767,-0.01241735
2023-11-06 22:35:50.505000192,-0.07860305,-0.05567969,-0.03941974,0.03825,-0.02467325,0.02191377,0.003431647,0.005344706,-0.01100594,0.6004863969000005,-0.0188984049459999,-0.0195918274609998,-0.03828294,0.01107501,-0.01257446
2023-11-06 22:35:50.517999872,-0.07890265,-0.05550714,-0.03935238,0.03919133,-0.02563326,0.01772292,0.002424268,0.005014286,-0.01074238,0.6029106649000004,-0.0138841189459999,-0.0303342074609998,-0.03828361,0.01112965,-0.01270723
2023-11-06 22:35:50.532000000,-0.0790745,-0.05534355,-0.03940371,0.03742654,-0.02746594,0.01503177,0.001271959,0.004429929,-0.01053728,0.6041826239000004,-0.0094541899459999,-0.0408714874609998,-0.03829476,0.01115448,-0.01283927
2023-11-06 22:35:50.546000128,-0.07918635,-0.05513704,-0.03931952,0.03346376,-0.0258867,0.01404004,0.0005645809,0.003562557,-0.01012955,0.6047472048000004,-0.0058916329459999,-0.0510010374609998,-0.03829979,0.01114612,-0.01295566
2023-11-06 22:35:50.562000128,-0.0792235,-0.05496486,-0.03938402,0.02155172,-0.02558155,0.01325739,-0.0004142543,0.002531435,-0.009725031,0.6043329505000005,-0.0033601979459999,-0.0607260684609998,-0.03832968,0.01114061,-0.01306871
2023-11-06 22:35:50.576000000,-0.07911224,-0.05485646,-0.03934288,0.01041033,-0.0229242,0.006105509,-0.001409105,0.001746986,-0.009298982,0.6029238455000004,-0.0016132119459999,-0.0700250504609999,-0.03837813,0.01113927,-0.01317755
2023-11-06 22:35:50.589999872,-0.07917794,-0.05484389,-0.03932894,0.008473361,-0.01912168,-0.002010874,-0.002357006,0.0009202191,-0.009101328,0.6005668395000004,-0.0006929928459999,-0.0791263784609999,-0.0384379,0.01112651,-0.01329754
2023-11-06 22:35:50.602999808,-0.07922863,-0.05484001,-0.03895374,0.009721405,-0.01235593,-0.0125916,-0.003213914,0.0005900791,-0.008845246,0.5973529255000004,-0.0001029137459999,-0.0879716244609999,-0.03851727,0.01113349,-0.01342658
2023-11-06 22:35:50.616000000,-0.07927069,-0.05502972,-0.03866776,0.006648903,-0.009683321,-0.0166098,-0.004403406,0.0005263623,-0.008937757,0.5929495195000004,0.000423448554,-0.0969093814609999,-0.03862125,0.01115154,-0.01358039
2023-11-06 22:35:50.630000128,-0.07927723,-0.055094,-0.03854504,0.01260391,-0.002708087,-0.01941416,-0.005017762,0.0002270526,-0.008872421,0.5879317575000004,0.000650501154,-0.1057818024609999,-0.03871285,0.01115125,-0.01371199
2023-11-06 22:35:50.644000000,-0.079345,-0.0552108,-0.0384336,0.01244192,0.0004310253,-0.01719986,-0.005661306,0.0001592432,-0.0088084,0.5822704515000003,0.000809744354,-0.1145902024609999,-0.03881118,0.01114391,-0.01383914
2023-11-06 22:35:50.658999808,-0.07951564,-0.05533056,-0.03855189,0.01534058,0.005469677,-0.01749483,-0.0061195,-2.012265e-05,-0.008784972,0.5761509515000003,0.000789621704,-0.1233751744609999,-0.03890885,0.01114387,-0.01396913
2023-11-06 22:35:50.672000000,-0.07952646,-0.05541661,-0.03842635,0.01634067,0.007454642,-0.01611494,-0.006586663,-0.0002665937,-0.00872878,0.5695642885000003,0.000523028004,-0.1321039544609999,-0.03900183,0.01109772,-0.01408407
2023-11-06 22:35:50.684999936,-0.07971944,-0.05557527,-0.03824545,0.0194862,0.01252624,-0.0174536,-0.006746747,-0.0006176797,-0.008544767,0.5628175415000003,-9.465169599994676e-05,-0.1406487214609999,-0.03908755,0.01104042,-0.01419675
2023-11-06 22:35:50.700000000,-0.07978293,-0.05579373,-0.03817191,0.01808059,0.01385915,-0.01998138,-0.006845374,-0.0006282276,-0.008567565,0.5559721675000003,-0.0007228792959999,-0.1492162864609999,-0.03917868,0.01101388,-0.01432487
2023-11-06 22:35:50.713999872,-0.0797824,-0.05599126,-0.03802586,0.01471405,0.01631954,-0.01858385,-0.006781587,-0.0005785802,-0.008569271,0.5491905805000004,-0.0013014594959999,-0.1577855574609999,-0.03926985,0.01099641,-0.01445502
2023-11-06 22:35:50.728000000,-0.07993171,-0.05611695,-0.03805929,0.01236888,0.01863363,-0.01694462,-0.006449303,-0.0003899942,-0.008556276,0.5427412775000003,-0.0016914536959999,-0.1663418334609999,-0.0393509,0.01101776,-0.01458397
2023-11-06 22:35:50.742000128,-0.07982578,-0.05617402,-0.03797903,0.01079268,0.01855713,-0.01072643,-0.005985166,-5.729395e-05,-0.008697582,0.5367561115000004,-0.0017487476459999,-0.1750394154609999,-0.03942564,0.01107304,-0.01471566
2023-11-06 22:35:50.756000000,-0.08000643,-0.05635977,-0.03786092,0.01427697,0.01716227,-0.0120725,-0.00541139,0.0006130119,-0.008853959,0.5313447215000003,-0.0011357357459999,-0.1838933744609999,-0.03948905,0.01114237,-0.01485978
2023-11-06 22:35:50.768999936,-0.08005762,-0.05649513,-0.03779476,0.01891279,0.01443398,-0.009826908,-0.004853368,0.001298436,-0.008791259,0.5264913535000003,0.000162700254,-0.1926846334609999,-0.03953929,0.01117435,-0.01498807
2023-11-06 22:35:50.783000064,-0.08044259,-0.05657727,-0.03771586,0.02612345,0.01148212,-0.00914842,-0.004429714,0.001797297,-0.008814575,0.5220616395000003,0.001959997254,-0.2014992084609999,-0.03958645,0.01120846,-0.01511697
2023-11-06 22:35:50.796999936,-0.08070727,-0.05678815,-0.03781411,0.0289684,0.01863249,-0.008343162,-0.003528804,0.001873866,-0.008448965,0.5185328355000003,0.003833863254,-0.2099481734609999,-0.03959678,0.01122729,-0.01521801
2023-11-06 22:35:50.809999872,-0.08073969,-0.05693483,-0.03814025,0.021988,0.016696,0.005293542,-0.003354462,0.001637494,-0.008279089,0.5151783735000003,0.005471357254,-0.2182272624609998,-0.03962103,0.01124237,-0.01531103
2023-11-06 22:35:50.824000000,-0.08076698,-0.05715515,-0.03841741,0.01790056,0.02000116,0.0142154,-0.002750877,0.0009872032,-0.008018115,0.5124274965000003,0.006458560454,-0.2262453774609998,-0.03962624,0.01123847,-0.01540859
2023-11-06 22:35:50.838000128,-0.0807402,-0.05731656,-0.03833807,0.01185692,0.02179346,0.01269026,-0.002187423,0.000434446,-0.007858878,0.5102400735000003,0.006893006454,-0.2341042554609999,-0.03963712,0.01122322,-0.01552086
2023-11-06 22:35:50.852000000,-0.08047669,-0.05738418,-0.03843184,0.001927228,0.02827281,0.01132807,-0.001385061,-0.0002942909,-0.00768369,0.5088550125000003,0.006598715554,-0.2417879454609998,-0.03963048,0.01120454,-0.01562526
2023-11-06 22:35:50.867000064,-0.08048037,-0.05757396,-0.03858105,-0.003690412,0.02675135,0.01095684,-0.0008768975,-0.0008883518,-0.007592045,0.5079781150000003,0.005710363754,-0.2493799904609998,-0.0396425,0.01121883,-0.01572595
2023-11-06 22:35:50.880999936,-0.08039603,-0.05741985,-0.03874777,-0.00550936,0.01719346,0.01369617,-0.0005794215,-0.000752053,-0.007650303,0.5073986935000003,0.004958310754,-0.2570302934609998,-0.03966215,0.01126831,-0.01580678
2023-11-06 22:35:50.895000064,-0.08069988,-0.05740672,-0.03893775,0.0007725544,0.0108877,0.02074782,0.0001501675,-0.0001831274,-0.00756115,0.5075488610000003,0.004775183354,-0.2645914434609999,-0.03965129,0.01131475,-0.01590225
2023-11-06 22:35:50.908999936,-0.08083025,-0.0573604,-0.03901795,0.007236998,0.003681277,0.0223469,0.0005329289,0.000719896,-0.007460341,0.5080817899000003,0.005495079354,-0.2720517844609998,-0.03962971,0.01135795,-0.01600055
2023-11-06 22:35:50.920999936,-0.08113576,-0.05702677,-0.03927006,0.01435924,-0.004718065,0.02519403,0.0006860237,0.0011118,-0.007533076,0.5087678136000003,0.006606879354,-0.2795848604609998,-0.03961717,0.0114012,-0.01609036
2023-11-06 22:35:50.935000064,-0.08124835,-0.0567988,-0.0393413,0.0193185,-0.01167532,0.02418745,0.000690984,0.00119856,-0.007503808,0.5094587976000003,0.007805439354,-0.2870886684609998,-0.03960194,0.01140947,-0.01620488
2023-11-06 22:35:50.950000128,-0.08152116,-0.05668233,-0.03942062,0.01899087,-0.01694256,0.02296976,0.000691867,0.001077329,-0.007450134,0.5101506646000004,0.008882768354,-0.2945388024609998,-0.03958618,0.01140944,-0.01632571
2023-11-06 22:35:50.964999936,-0.08155437,-0.05656427,-0.03930077,0.01558164,-0.01972959,0.02206938,0.0006299505,0.0009264892,-0.007268568,0.5107806151000004,0.009809257554,-0.3018073704609998,-0.03957877,0.01140499,-0.01642236
2023-11-06 22:35:50.979000064,-0.08163273,-0.05629906,-0.03948732,0.01124864,-0.0213517,0.02094618,0.0003635791,0.0007397751,-0.007138981,0.5111441942000003,0.010549032654,-0.3089463514609998,-0.03958277,0.01142114,-0.01650327
2023-11-06 22:35:50.992999936,-0.08155744,-0.05614407,-0.03935973,0.008357987,-0.02413752,0.01797715,-0.0002644791,0.0002829586,-0.007122006,0.5108797151000003,0.010831991254,-0.3160683574609998,-0.03960629,0.01140711,-0.01658474
2023-11-06 22:35:51.006000128,-0.08168189,-0.05593733,-0.03945039,0.003379837,-0.02455579,0.01561843,-0.0008078341,0.0001582351,-0.007019551,0.5100718810000003,0.010990226354,-0.3230879084609998,-0.03962906,0.01142112,-0.01663743
2023-11-06 22:35:51.019000064,-0.08176306,-0.0557937,-0.03942872,0.004311555,-0.02332852,0.008155883,-0.001468201,0.0002611965,-0.006794754,0.5086036800000003,0.011251422854,-0.3298826624609998,-0.03966521,0.01143547,-0.01668789
2023-11-06 22:35:51.033999872,-0.08190984,-0.05566815,-0.03959347,0.008114831,-0.02173047,0.01133484,-0.0021654,0.0004553232,-0.006583417,0.5064382800000004,0.011706746054,-0.3364660794609998,-0.03971625,0.01146057,-0.01676206
2023-11-06 22:35:51.048000000,-0.08207349,-0.05541688,-0.03938351,0.01228818,-0.02630055,0.005754549,-0.003180328,0.001218544,-0.006440251,0.5032579520000003,0.012925290054,-0.3429063304609998,-0.03979342,0.01148907,-0.01683153
2023-11-06 22:35:51.061000192,-0.08239786,-0.05539964,-0.03918223,0.0193632,-0.02582912,-0.0001561547,-0.003749541,0.001646477,-0.006165845,0.4995084110000003,0.014571767054,-0.3490721754609998,-0.03985855,0.01151061,-0.01690809
2023-11-06 22:35:51.075000064,-0.08245163,-0.05526792,-0.03906101,0.02141225,-0.02382216,-0.00294878,-0.004399041,0.001804508,-0.005892641,0.4951093700000003,0.016376275054,-0.3549648164609998,-0.03993236,0.01153477,-0.01697358
2023-11-06 22:35:51.088999936,-0.08267086,-0.05530089,-0.03906663,0.02419756,-0.01984301,-0.003322962,-0.004956583,0.001559161,-0.005799344,0.4901527870000003,0.017935436054,-0.3607641604609998,-0.04001044,0.0115493,-0.01705498
2023-11-06 22:35:51.102999808,-0.08267185,-0.0551938,-0.03900939,0.02250792,-0.01641703,-0.00374808,-0.005609138,0.001412487,-0.005519671,0.4845436490000003,0.019347923054,-0.3662838314609998,-0.04010921,0.01156229,-0.01711661
2023-11-06 22:35:51.117000192,-0.08284795,-0.05517574,-0.03880823,0.01966055,-0.01180382,-0.003344652,-0.006085449,0.001266105,-0.005240115,0.4784582000000003,0.020614028054,-0.3715239464609998,-0.04020957,0.0115628,-0.01717946
2023-11-06 22:35:51.130000128,-0.08290616,-0.05527365,-0.038829,0.01952679,-0.01062511,-0.006665232,-0.006443486,0.001074062,-0.004878214,0.4720147140000003,0.021688090054,-0.3764021604609998,-0.0402988,0.01158071,-0.01722969
2023-11-06 22:35:51.144000000,-0.08305775,-0.0552451,-0.03870909,0.01745801,-0.008260875,-0.006076572,-0.006732234,0.0007652796,-0.004400766,0.4652824800000003,0.022453369654,-0.3808029264609998,-0.04038548,0.01158881,-0.01725348
2023-11-06 22:35:51.157000192,-0.08311842,-0.05522235,-0.03867389,0.01461915,-0.005776423,-0.006781575,-0.006862579,0.0004646997,-0.003909256,0.4584199010000003,0.022918069354,-0.3847121824609998,-0.04047192,0.01159556,-0.01727494
2023-11-06 22:35:51.172000000,-0.08311196,-0.05522686,-0.038631,0.01037939,-0.004225914,-0.0067354,-0.006981437,0.0002671157,-0.0034154,0.4514384640000003,0.023185185054,-0.3881275824609998,-0.04057269,0.01159127,-0.01730716
2023-11-06 22:35:51.186000128,-0.0831712,-0.05521329,-0.0385602,0.01037962,-0.004225167,-0.006735516,-0.007136617,-6.690389e-05,-0.002956114,0.4443018470000003,0.023118281164,-0.3910836964609998,-0.04067763,0.01157673,-0.01733387
2023-11-06 22:35:51.200000000,-0.08311164,-0.05521977,-0.03844958,0.00577058,-0.003595222,-0.01009397,-0.007200223,-4.348306e-05,-0.00242548,0.4371016240000003,0.023074798104,-0.3935091764609998,-0.04076611,0.0115565,-0.01732345
2023-11-06 22:35:51.213999872,-0.083139,-0.05519371,-0.03837075,0.005652673,-0.004653049,-0.01012416,-0.007437756,-0.000593411,-0.001871214,0.4296638680000003,0.022481387104,-0.3953803904609998,-0.04085955,0.0115083,-0.01729716
2023-11-06 22:35:51.228000000,-0.08314382,-0.05512047,-0.0382749,0.004274196,-0.007704769,-0.0104692,-0.007702161,-0.0008307322,-0.001339222,0.4219617070000003,0.021650654904,-0.3967196124609998,-0.04096632,0.0114742,-0.01727752
2023-11-06 22:35:51.242000128,-0.08315956,-0.05510239,-0.03826782,0.003619254,-0.006648838,-0.007331005,-0.007620118,-0.001071943,-0.0007322348,0.4143415890000003,0.020578711904,-0.3974518472609998,-0.0410686,0.01145165,-0.0172682
2023-11-06 22:35:51.255000064,-0.08307446,-0.05502675,-0.03824111,-0.002258022,-0.008158189,-0.006590863,-0.007849726,-0.001010918,-7.313769e-05,0.4064918630000003,0.019567793904,-0.3975249849509998,-0.04118409,0.01143633,-0.01724439
2023-11-06 22:35:51.268999936,-0.08310942,-0.05505353,-0.03811847,0.001045314,-0.00628866,-0.01015775,-0.007931924,-0.001232188,0.0005595951,0.3985599390000003,0.018335605904,-0.3969653898509998,-0.04130551,0.01145075,-0.01716397
2023-11-06 22:35:51.282000128,-0.08308523,-0.05509296,-0.03796886,0.001025694,-0.004048071,-0.01346095,-0.008301634,-0.001341395,0.001428148,0.3902583050000003,0.016994210904,-0.3955372418509998,-0.0414424,0.01146752,-0.01706385
2023-11-06 22:35:51.296999936,-0.08302641,-0.05520523,-0.03790122,-0.0004425736,0.001485529,-0.01382001,-0.008621872,-0.001399655,0.002244905,0.3816364330000003,0.015594555904,-0.3932923368509998,-0.04157584,0.01146353,-0.01698973
2023-11-06 22:35:51.311000064,-0.08294971,-0.05526862,-0.03790387,-0.003032531,0.003840568,-0.01116008,-0.008895934,-0.00153776,0.00304466,0.3727404990000003,0.014056795904,-0.3902476768509998,-0.04170653,0.01143906,-0.01692694
2023-11-06 22:35:51.324999936,-0.0827873,-0.05534074,-0.03801424,-0.009613243,0.007609227,-0.005087601,-0.009088169,-0.001939365,0.003628437,0.3636523300000003,0.012117430904,-0.3866192398509998,-0.04183718,0.01140405,-0.01686218
2023-11-06 22:35:51.339000064,-0.0824177,-0.05549744,-0.03830093,-0.01786664,0.01268602,-0.0005286973,-0.009235337,-0.002355172,0.004305063,0.3544169930000003,0.009762258904,-0.3823141768509998,-0.0419705,0.0113578,-0.0167863
2023-11-06 22:35:51.352999936,-0.0821927,-0.05566125,-0.0380354,-0.02210308,0.01447699,-0.00928057,-0.009600557,-0.0023392,0.004694184,0.3448164360000003,0.007423058904,-0.3776199928509998,-0.0421195,0.01129148,-0.0167117
2023-11-06 22:35:51.367000064,-0.08220237,-0.0556923,-0.03781932,-0.02093311,0.01342213,-0.0144933,-0.01005286,-0.002370954,0.0049862,0.3347635760000003,0.005052104904,-0.3726337928509998,-0.04227425,0.01123938,-0.01663301
2023-11-06 22:35:51.379000064,-0.0820029,-0.05592394,-0.03783241,-0.01825303,0.01651184,-0.01932067,-0.0100144,-0.002456909,0.005208413,0.3247491760000003,0.002595195904,-0.3674253798509998,-0.04240897,0.01120302,-0.01656679
2023-11-06 22:35:51.394000128,-0.08170784,-0.05585794,-0.03776117,-0.01905984,0.01650419,-0.01619161,-0.009977189,-0.002743822,0.005262745,0.3147719870000003,-0.0001486260959999,-0.3621626348509998,-0.04255415,0.01117277,-0.01646588
2023-11-06 22:35:51.408000000,-0.08171361,-0.05606763,-0.03761246,-0.01725212,0.01639017,-0.01905619,-0.00977839,-0.00277144,0.005450835,0.3049935970000003,-0.0029200660959999,-0.3567117998509998,-0.04270843,0.01119315,-0.01631736
2023-11-06 22:35:51.421999872,-0.0815346,-0.05622801,-0.03760445,-0.01940544,0.01557739,-0.01960913,-0.009770115,-0.002605244,0.005707107,0.2952234820000003,-0.0055253100959999,-0.3510046928509998,-0.04286617,0.01122509,-0.01616688
2023-11-06 22:35:51.436999936,-0.08138062,-0.05631953,-0.03761184,-0.01930971,0.01649381,-0.01517311,-0.009563734,-0.002654616,0.005799185,0.2856597480000003,-0.0081799260959999,-0.3452055078509998,-0.04299539,0.011192,-0.01608242
2023-11-06 22:35:51.450000128,-0.0812366,-0.05634505,-0.03744193,-0.01919418,0.01528366,-0.01183983,-0.009306426,-0.002678991,0.005849991,0.2763533220000003,-0.0108589170959999,-0.3393555168509998,-0.04311827,0.01114391,-0.01600022
2023-11-06 22:35:51.463000064,-0.08118984,-0.05639975,-0.03756966,-0.01533299,0.01481358,-0.00977479,-0.008871839,-0.002799019,0.005872144,0.2674814830000003,-0.0136579360959999,-0.3334833728509998,-0.04322452,0.01108777,-0.01593385
2023-11-06 22:35:51.476999936,-0.08091006,-0.05654667,-0.03753038,-0.01650867,0.01598446,-0.008954433,-0.008318868,-0.002651135,0.005887223,0.2591626150000004,-0.0163090710959999,-0.3275961498509998,-0.04331953,0.0110206,-0.01587866
2023-11-06 22:35:51.491000064,-0.08083611,-0.05665842,-0.03741135,-0.01582256,0.01268368,-0.008815204,-0.008129395,-0.002754468,0.005631765,0.2510332200000004,-0.0190635390959999,-0.3219643848509998,-0.04342458,0.01094623,-0.01582854
2023-11-06 22:35:51.505000192,-0.08071166,-0.05673794,-0.03750391,-0.01850335,0.01184678,-0.007308225,-0.007749184,-0.002566713,0.005409863,0.2432840360000004,-0.0216302520959999,-0.3165545218509998,-0.04352294,0.01092122,-0.01576601
2023-11-06 22:35:51.519000064,-0.08059884,-0.05673009,-0.03755977,-0.01758827,0.01067763,-0.007080975,-0.007404369,-0.002543849,0.005102968,0.2358796670000004,-0.0241741010959999,-0.3114515538509998,-0.04361164,0.01089079,-0.01570175
2023-11-06 22:35:51.532999936,-0.0804985,-0.05669227,-0.03749029,-0.01663381,0.005121763,-0.004692191,-0.007292543,-0.00246002,0.00491141,0.2285871240000004,-0.0266341210959999,-0.3065401438509998,-0.04374055,0.01089959,-0.01559791
2023-11-06 22:35:51.546000128,-0.08054096,-0.05663584,-0.03722634,-0.01744168,0.002234703,-0.01153309,-0.006867369,-0.001795909,0.00471657,0.2217197550000003,-0.0284300300959999,-0.3018235738509998,-0.04386083,0.01092954,-0.0154875
2023-11-06 22:35:51.561000192,-0.08031403,-0.05673169,-0.03721178,-0.01152264,0.00169355,-0.01334443,-0.006255607,-0.001437812,0.004622383,0.2154641480000003,-0.0298678420959999,-0.2972011908509998,-0.04394927,0.01094913,-0.01540506
2023-11-06 22:35:51.575000064,-0.08034864,-0.05662669,-0.037283,-0.007551134,-0.002272894,-0.00466706,-0.005930669,-0.001415221,0.004358416,0.2095334790000003,-0.0312830630959999,-0.2928427748509998,-0.04402339,0.01093437,-0.01534717
2023-11-06 22:35:51.588000000,-0.08034749,-0.05647951,-0.03747161,-0.007441418,-0.005922851,0.006335002,-0.005611106,-0.00149555,0.004276159,0.2039223730000003,-0.0327786130959999,-0.2885666158509998,-0.04409188,0.01092389,-0.01528238
2023-11-06 22:35:51.601999872,-0.0802932,-0.05645056,-0.03741203,-0.007405504,-0.005751974,0.001937845,-0.005055088,-0.001334497,0.003971837,0.1988672850000003,-0.0341131100959999,-0.2845947788509999,-0.04414849,0.01089733,-0.01526362
2023-11-06 22:35:51.616000000,-0.08030243,-0.05637978,-0.03738962,-0.005203225,-0.007034049,0.001380393,-0.004929911,-0.001814454,0.003692058,0.1939373740000003,-0.0359275640959999,-0.2809027208509999,-0.04421705,0.01084527,-0.01524815
2023-11-06 22:35:51.630000128,-0.08018018,-0.0563421,-0.03741246,-0.00945485,-0.005516137,0.001422015,-0.004836061,-0.001876497,0.003347345,0.1891013130000003,-0.0378040610959999,-0.2775553758509999,-0.04428316,0.01081598,-0.01522176
2023-11-06 22:35:51.644999936,-0.08005669,-0.05615245,-0.03734285,-0.01304172,-0.0125589,-0.0006762584,-0.004882202,-0.002171042,0.003036884,0.1842191110000003,-0.0399751030959999,-0.2745184918509998,-0.04435411,0.01077417,-0.01517627
2023-11-06 22:35:51.657999872,-0.07985303,-0.05601709,-0.03712718,-0.01598059,-0.01098067,-0.005800906,-0.004293634,-0.002521047,0.002910981,0.1799254770000003,-0.0424961500959999,-0.2716075108509999,-0.04439906,0.01071643,-0.01512985
2023-11-06 22:35:51.671000064,-0.07979992,-0.05590978,-0.03719696,-0.01824165,-0.01513831,-0.003126287,-0.004421807,-0.002460374,0.002686178,0.1755036700000003,-0.0449565240959999,-0.2689213328509999,-0.04448786,0.01074674,-0.01505461
2023-11-06 22:35:51.684999936,-0.07961594,-0.05586368,-0.03702748,-0.01682156,-0.01401025,-0.008264409,-0.00441522,-0.001732818,0.002662775,0.1710884500000003,-0.0466893420959999,-0.2662585578509999,-0.04457453,0.01079598,-0.01497346
2023-11-06 22:35:51.700000000,-0.07965965,-0.0557804,-0.0369805,-0.01106521,-0.01350923,-0.009006292,-0.004364119,-0.001153634,0.002450741,0.1667243310000003,-0.0478429760959999,-0.2638078168509999,-0.04464739,0.01082445,-0.0149215
2023-11-06 22:35:51.713999872,-0.0796495,-0.05565789,-0.03693981,-0.008359103,-0.01493568,-0.007245494,-0.004415024,-0.0004128602,0.002193389,0.1623093070000003,-0.0482558362959999,-0.2616144278509999,-0.04471213,0.01083847,-0.01489116
2023-11-06 22:35:51.729000192,-0.07972398,-0.05558451,-0.0368951,-0.003113493,-0.01446384,-0.005921612,-0.004453944,-5.267034e-05,0.002131229,0.1578553630000004,-0.0483085066359999,-0.2594831988509999,-0.04476134,0.01083716,-0.01486229
2023-11-06 22:35:51.743000064,-0.07984634,-0.05555286,-0.03688736,0.003110311,-0.01200777,-0.003223528,-0.00430789,-0.0002181545,0.001958682,0.1535474730000003,-0.0485266611359999,-0.2575245168509999,-0.04478536,0.01081433,-0.01484635
2023-11-06 22:35:51.756000000,-0.07982185,-0.05555597,-0.0368413,0.001646014,-0.008582388,-0.004639834,-0.004208335,-0.0002957934,0.001952229,0.1493391380000003,-0.0488224545359999,-0.2555722878509999,-0.04481424,0.01079405,-0.01482543
2023-11-06 22:35:51.769999872,-0.07973616,-0.05555503,-0.03679641,-0.002239231,-0.005997031,-0.005573145,-0.00405465,-0.0003606964,0.002083956,0.1452844880000003,-0.0491831509359999,-0.2534883318509999,-0.04486677,0.01078557,-0.01479221
2023-11-06 22:35:51.783000064,-0.07973643,-0.05546354,-0.03670321,-0.001280594,-0.009273904,-0.006483917,-0.0040278,-0.0003706774,0.002253107,0.1412566880000003,-0.0495538283359999,-0.2512352248509999,-0.04492332,0.01077559,-0.0147498
2023-11-06 22:35:51.796000000,-0.0797415,-0.05544178,-0.03662394,0.0001045269,-0.008311347,-0.007224001,-0.003612078,-0.0003195218,0.002587263,0.1376446100000004,-0.0498733501359999,-0.2486479618509999,-0.04494498,0.0107915,-0.01467037
2023-11-06 22:35:51.811000064,-0.07963791,-0.05534004,-0.03660469,-0.004992774,-0.0100105,-0.005220487,-0.003471935,-9.335922e-05,0.002771534,0.1341726750000003,-0.0499667093559999,-0.2458764278509999,-0.04496706,0.01082777,-0.01457767
2023-11-06 22:35:51.826999808,-0.07951863,-0.05527057,-0.03652688,-0.008947838,-0.01058809,-0.007315458,-0.003181761,-0.0001151623,0.002908102,0.1309909140000003,-0.0500818716559999,-0.2429683258509999,-0.04498757,0.0108408,-0.01450014
2023-11-06 22:35:51.839000064,-0.07949989,-0.05520782,-0.03647698,-0.006894772,-0.01082033,-0.006808524,-0.002815467,-0.0004969275,0.003093742,0.1281754470000004,-0.0505787991559999,-0.2398745838509999,-0.04501615,0.01081982,-0.01444702
2023-11-06 22:35:51.852999936,-0.07946034,-0.05515809,-0.03644987,-0.006017743,-0.009894109,-0.005476086,-0.002468564,-0.0005925325,0.003496104,0.1257068830000003,-0.0511713316559999,-0.2363784798509999,-0.04504032,0.01080897,-0.0143832
2023-11-06 22:35:51.867000064,-0.07939538,-0.0551255,-0.03638311,-0.006675492,-0.008702101,-0.006723419,-0.002301923,-0.0003924504,0.003923869,0.1234049600000003,-0.0515637820559999,-0.2324546108509999,-0.04505455,0.0107954,-0.01430392
2023-11-06 22:35:51.879000064,-0.0794265,-0.0551593,-0.03633068,-0.002907834,-0.004797712,-0.006824155,-0.001885145,-0.0005178339,0.004273399,0.1215198150000003,-0.0520816159559999,-0.2281812118509999,-0.04505258,0.01076679,-0.01422503
2023-11-06 22:35:51.894000128,-0.07944681,-0.05521378,-0.03630383,-0.0004249133,-0.0007939526,-0.006141888,-0.001610457,-0.0006430362,0.004597349,0.1199093580000003,-0.0527246521559999,-0.2235838628509999,-0.04505734,0.01074428,-0.01414805
2023-11-06 22:35:51.908999936,-0.07935677,-0.05523463,-0.03636173,-0.004318683,0.001600476,-0.002666769,-0.001460267,-0.0007565555,0.004811911,0.1184490910000003,-0.0534812076559999,-0.2187719518509999,-0.04507353,0.01073487,-0.01407571
2023-11-06 22:35:51.921999872,-0.07922342,-0.05527236,-0.03636459,-0.00858683,0.003116567,-0.002616654,-0.001305105,-0.0009463574,0.004940449,0.1171439860000003,-0.0544275650559999,-0.2138315028509999,-0.04510163,0.01073704,-0.01401554
2023-11-06 22:35:51.936000000,-0.07908048,-0.05537355,-0.03643506,-0.01200975,0.007643964,-8.747009e-05,-0.0008981095,-0.001169817,0.005084699,0.1162458765000003,-0.0555973820559999,-0.2087468038509999,-0.045123,0.01074895,-0.01396317
2023-11-06 22:35:51.950000128,-0.0789366,-0.05546726,-0.03644267,-0.01359115,0.01001075,-0.001537924,-0.0006148195,-0.001210948,0.004990073,0.1156310570000003,-0.0568083300559999,-0.2037567308509998,-0.04513977,0.01075615,-0.01391499
2023-11-06 22:35:51.963000064,-0.0787233,-0.05543032,-0.03670081,-0.01645169,0.01229466,0.002201464,-0.0002923834,-0.001266452,0.005043244,0.1153386736000003,-0.0580747820559999,-0.1987134868509998,-0.04513406,0.01075323,-0.01384221
2023-11-06 22:35:51.976999936,-0.0787316,-0.05552195,-0.03661022,-0.01370102,0.00876357,0.002814307,-0.0001081823,-0.001054118,0.004991063,0.1152304913000003,-0.0591289000559999,-0.1937224238509999,-0.04513063,0.01073864,-0.01377994
2023-11-06 22:35:51.990000128,-0.07868723,-0.05554765,-0.03668825,-0.0119936,0.007480295,0.004327417,0.0004385693,-0.0005026282,0.00479712,0.1156690606000003,-0.0596315282559999,-0.1889253038509999,-0.04502688,0.01073935,-0.01376693
2023-11-06 22:35:52.005000192,-0.07863982,-0.05561312,-0.03675939,-0.01085924,0.008423501,0.004627341,0.001113591,-0.0002223281,0.004539959,0.1167826516000003,-0.0598538563559999,-0.1843853448509999,-0.04490063,0.01073306,-0.01376757
2023-11-06 22:35:52.020000000,-0.07857434,-0.05563895,-0.03679366,-0.01070797,0.007385542,0.003544395,0.001534842,-0.0001258994,0.004371291,0.1183174936000003,-0.0599797557559999,-0.1800140538509999,-0.04482844,0.01072891,-0.01373564
2023-11-06 22:35:52.035000064,-0.07848658,-0.05558197,-0.03692854,-0.01232544,0.004109486,0.008579798,0.001746652,-1.523801e-05,0.004012654,0.1200641456000003,-0.0599949937659999,-0.1760013998509998,-0.04479679,0.01074171,-0.01368717
2023-11-06 22:35:52.048000000,-0.07837455,-0.055571,-0.03698452,-0.01423865,0.003289626,0.007002013,0.001994072,0.0001955633,0.003938281,0.1220582176000003,-0.0597994304659999,-0.1720631188509999,-0.04475999,0.01074408,-0.01364458
2023-11-06 22:35:52.064999936,-0.07833137,-0.05550069,-0.03702611,-0.01225244,-9.90096e-05,0.0063303,0.002095667,5.073165e-05,0.003844396,0.1241538846000003,-0.0597486988159999,-0.1682187228509999,-0.04472443,0.01071952,-0.01361995
2023-11-06 22:35:52.076000000,-0.07837317,-0.05550054,-0.03699532,-0.006086311,-0.0006040286,0.003458299,0.002185156,-0.0002771273,0.003861905,0.1263390406000003,-0.0600258261159999,-0.1643568178509999,-0.0446875,0.01068218,-0.01359446
2023-11-06 22:35:52.088999936,-0.07831814,-0.05552371,-0.03705123,-0.006127743,0.001491071,0.004591671,0.002170061,-0.0001126059,0.003938257,0.1285091016000003,-0.0601384320159999,-0.1604185608509999,-0.04465741,0.01069,-0.01353971
2023-11-06 22:35:52.102999808,-0.07830261,-0.05547124,-0.03702006,-0.004910197,-0.001759384,0.002627399,0.001949733,0.0003754979,0.004084342,0.1304588346000003,-0.0597629341159999,-0.1563342188509999,-0.0446376,0.0107088,-0.01347532
2023-11-06 22:35:52.117000192,-0.07827677,-0.05547768,-0.03723564,-0.006654211,0.001234344,0.01106285,0.002039661,0.0004263985,0.004290854,0.1324984956000003,-0.0593365356159999,-0.1520433648509999,-0.04456944,0.01071837,-0.01337595
2023-11-06 22:35:52.132000000,-0.078176,-0.05546963,-0.03738675,-0.01039897,0.002584372,0.01345736,0.001907997,0.0002763208,0.004457734,0.1344064926000003,-0.0590602148159999,-0.1475856308509999,-0.04449968,0.01071484,-0.01326158
2023-11-06 22:35:52.145999872,-0.07800347,-0.05549866,-0.0373809,-0.0143441,0.002229795,0.006960057,0.001683991,0.0002405516,0.004285876,0.1360904836000003,-0.0588196632159999,-0.1432997548509999,-0.04444694,0.01071004,-0.01317434
2023-11-06 22:35:52.160000000,-0.07785705,-0.05559959,-0.03726849,-0.01475967,0.005962298,-0.002970328,0.001527654,0.0003519745,0.004224515,0.1376181376000003,-0.0584676887159999,-0.1390752398509999,-0.04443219,0.01071105,-0.01312333
2023-11-06 22:35:52.174000128,-0.07777782,-0.05565687,-0.0372779,-0.01351369,0.007959832,-0.002614389,0.001353306,2.590328e-05,0.003971699,0.1389714436000003,-0.0584417854359999,-0.1351035408509999,-0.04442044,0.01070276,-0.01307952
2023-11-06 22:35:52.188000000,-0.07770807,-0.05567461,-0.03721156,-0.01177888,0.004758785,-0.006655037,0.001102322,-0.0001031401,0.003708782,0.1400737656000003,-0.0585449255359999,-0.1313947588509999,-0.04441036,0.01069191,-0.01303521
2023-11-06 22:35:52.198999808,-0.07769011,-0.05568932,-0.03724974,-0.009481129,0.004325988,-0.002794911,0.001170484,-0.0004555033,0.003633397,0.1412442496000003,-0.0590004288359999,-0.1277613618509999,-0.04434101,0.0106719,-0.01293183
2023-11-06 22:35:52.212999936,-0.077762,-0.05575024,-0.03718053,-0.002437777,0.004737856,-0.004322055,0.00121462,-0.0007481275,0.003506402,0.1424588696000003,-0.0597485563359999,-0.1242549598509999,-0.04426612,0.01064327,-0.01282725
2023-11-06 22:35:52.228000000,-0.07774161,-0.05580172,-0.0370999,-0.001917898,0.004785316,-0.006392363,0.001128647,-0.000847612,0.003362041,0.1435875166000003,-0.0605961683359999,-0.1208929188509999,-0.04422252,0.01062189,-0.01275297
2023-11-06 22:35:52.243000064,-0.07772996,-0.05592334,-0.03701845,-0.0005490373,0.008055273,-0.01037729,0.001052144,-0.0009284986,0.003233213,0.1446396606000003,-0.0615246669359999,-0.1176597058509999,-0.04421052,0.01059941,-0.0127198
2023-11-06 22:35:52.256000000,-0.07768781,-0.05600241,-0.03699099,-0.001709501,0.009215125,-0.009553522,0.0008957301,-0.001325073,0.002918748,0.1455353907000003,-0.0628497399359999,-0.1147409578509999,-0.04419977,0.0105666,-0.01269238
2023-11-06 22:35:52.270999808,-0.07748634,-0.05610552,-0.03693826,-0.009805318,0.01122363,-0.01154355,0.0007851467,-0.001506618,0.002721154,0.1463205374000003,-0.0643563579359999,-0.1120198038509999,-0.04416063,0.01052382,-0.01265588
2023-11-06 22:35:52.284000000,-0.07724695,-0.05619977,-0.0369553,-0.01226862,0.01247542,-0.009927257,0.0008729578,-0.001811577,0.002390031,0.1471934952000003,-0.0661679349359999,-0.1096297728509999,-0.04411274,0.01047597,-0.01262664
2023-11-06 22:35:52.296999936,-0.0772243,-0.05633205,-0.0369656,-0.01575736,0.01383532,-0.008581231,0.0009441093,-0.001408308,0.002082647,0.1481376045000003,-0.0675762429359999,-0.1075471258509999,-0.04408459,0.0104627,-0.01261077
2023-11-06 22:35:52.309999872,-0.07716391,-0.05641799,-0.03686759,-0.0106089,0.01346488,-0.01169178,0.001098976,-0.0007712846,0.001672128,0.1492365805000003,-0.0683475275359999,-0.1058749978509999,-0.0440644,0.01046428,-0.01260339
2023-11-06 22:35:52.324999936,-0.07716291,-0.05650836,-0.03682045,-0.005587959,0.01180893,-0.01045662,0.001284838,-0.0003073386,0.00148163,0.1505214185000003,-0.0686548661359999,-0.1043933678509999,-0.04403684,0.01046505,-0.01258907
2023-11-06 22:35:52.340000000,-0.0771023,-0.05661404,-0.03678733,-0.005479797,0.01286795,-0.01040213,0.00162916,0.0003370231,0.001241916,0.1521505785000003,-0.0683178430359999,-0.1031514518509999,-0.04399047,0.01046466,-0.01256512
2023-11-06 22:35:52.354000128,-0.07719247,-0.05672997,-0.03671351,0.00130472,0.01327224,-0.01087293,0.001867187,0.000815046,0.001055292,0.1540177655000003,-0.0675027970359999,-0.1020961598509999,-0.04394519,0.01046218,-0.01254531
2023-11-06 22:35:52.368000000,-0.0773491,-0.05679671,-0.03675724,0.007428236,0.01234458,-0.004933053,0.001993268,0.001116821,0.0008335336,0.1560110335000003,-0.0663859760359999,-0.1012626262509999,-0.04391145,0.01048199,-0.01254253
2023-11-06 22:35:52.380999936,-0.07746752,-0.05687313,-0.03695322,0.00937138,0.01375767,0.005513541,0.00233086,0.001265401,0.0009535432,0.1583418935000003,-0.0651205750359999,-0.1003090830509999,-0.04386837,0.01051436,-0.01253268
2023-11-06 22:35:52.394000128,-0.07752647,-0.05690773,-0.03684055,0.009504288,0.009783789,-0.001163877,0.002454503,0.001557028,0.0007931493,0.1607963965000003,-0.0635635470359999,-0.0995159337509999,-0.04383583,0.01053871,-0.01252775
2023-11-06 22:35:52.408999936,-0.07755288,-0.05703411,-0.03680407,0.007773771,0.01319356,-0.001522277,0.002766139,0.001388269,0.0008746672,0.1635625355000003,-0.0621752780359999,-0.0986412665509999,-0.04379787,0.01055527,-0.01252012
2023-11-06 22:35:52.423000064,-0.07759482,-0.05711326,-0.03681625,0.0079325,0.01215986,-0.002609079,0.002671369,0.001237148,0.0005949686,0.1662339045000003,-0.0609381300359999,-0.0980462979509999,-0.04376944,0.0105699,-0.01252295
2023-11-06 22:35:52.436999936,-0.07758424,-0.05711634,-0.0367441,0.005879687,0.007152317,-0.005459525,0.002688384,0.001403958,0.0005511771,0.1689222885000003,-0.0595341720359999,-0.0974951208509999,-0.04373118,0.01059006,-0.01251587
2023-11-06 22:35:52.451000064,-0.07754844,-0.05718349,-0.0367383,0.00254096,0.007477759,-0.005204699,0.003246122,0.001520373,0.0007745906,0.1721684105000002,-0.0580137990359999,-0.0967205302509999,-0.04366786,0.01061278,-0.01250193
2023-11-06 22:35:52.464000000,-0.07756869,-0.05721703,-0.03678618,0.001758814,0.007413085,-0.002104749,0.003480494,0.001283051,0.000843683,0.1756489045000002,-0.0567307480359999,-0.0958768472509999,-0.0436147,0.01059528,-0.01249018
2023-11-06 22:35:52.476999936,-0.07762383,-0.05723077,-0.03681495,0.0031707,0.006071962,0.0004300114,0.003443301,0.000752261,0.0008322903,0.1790922055000003,-0.0559784870359999,-0.0950445569509999,-0.04357107,0.01055025,-0.01247906
2023-11-06 22:35:52.492000000,-0.07762655,-0.05725591,-0.03680712,0.00203956,0.005130288,0.0001170312,0.003286566,0.0006014899,0.0008425096,0.1823787715000003,-0.0553769971359999,-0.0942020473509999,-0.04353122,0.01052342,-0.01246714
2023-11-06 22:35:52.506000128,-0.07775167,-0.05731618,-0.0368282,0.00726875,0.00560581,0.001472022,0.003275204,0.0002671667,0.001044957,0.1856539755000003,-0.0551098304359999,-0.0931570903509999,-0.04348485,0.01051736,-0.0124507
2023-11-06 22:35:52.520000000,-0.07779311,-0.05738558,-0.03686285,0.007641579,0.006687853,0.0004912188,0.003236454,0.0003355182,0.00134145,0.1888904295000003,-0.0547743122359999,-0.0918156403509999,-0.04343898,0.01052498,-0.01242848
2023-11-06 22:35:52.533999872,-0.07783389,-0.05754296,-0.03687107,0.007159728,0.0120802,0.0005064806,0.003425035,0.0002505431,0.001657931,0.1923154645000002,-0.0545237691359999,-0.0901577093509999,-0.04338442,0.0105282,-0.01243768
2023-11-06 22:35:52.548000000,-0.07779516,-0.05758758,-0.03683969,0.003383138,0.0104772,-0.002709476,0.003132226,8.455435e-06,0.001607825,0.1954476905000002,-0.0545153137009999,-0.0885498843509999,-0.04334879,0.01052103,-0.01246136
2023-11-06 22:35:52.562000128,-0.07767383,-0.05766691,-0.03686031,-0.003028476,0.0111533,-0.003245196,0.003147567,-0.0004714959,0.001694966,0.1985952575000002,-0.0549868096009999,-0.0868549183509999,-0.04330276,0.01050278,-0.01246223
2023-11-06 22:35:52.576000000,-0.07757252,-0.05773745,-0.03680502,-0.005673054,0.01049293,-0.006149013,0.00323977,-0.0009081281,0.001765783,0.2018350275000002,-0.0558949377009999,-0.0850891353509999,-0.04325492,0.01047457,-0.01243927
2023-11-06 22:35:52.589999872,-0.07735054,-0.05774896,-0.03684863,-0.01411233,0.00910206,-0.003961922,0.003284418,-0.0008948607,0.001799414,0.2051194455000002,-0.0567897984009999,-0.0832897213509999,-0.04320862,0.01046512,-0.01241394
2023-11-06 22:35:52.602999808,-0.07726078,-0.057767,-0.03673545,-0.01336034,0.006024574,-0.008253238,0.003148693,-0.0009085402,0.001766075,0.2082681385000002,-0.0576983386009999,-0.0815236463509999,-0.04318946,0.01041931,-0.01240871
2023-11-06 22:35:52.617000192,-0.07723202,-0.0578361,-0.03671082,-0.0101818,0.006733692,-0.00741329,0.003132974,-0.0006059923,0.001800679,0.2114011125000003,-0.0583043309009999,-0.0797229673509999,-0.04316489,0.01039246,-0.0124037
2023-11-06 22:35:52.631000064,-0.07733342,-0.05786939,-0.03662107,-0.001290713,0.004821228,-0.008464459,0.003024834,2.554609e-05,0.001912668,0.2144259465000003,-0.0582787848109999,-0.0778102993509999,-0.04313381,0.01039684,-0.01238207
2023-11-06 22:35:52.644000000,-0.07746461,-0.05794668,-0.03659793,0.006088606,0.006126251,-0.006517563,0.003091824,0.0006018775,0.002040178,0.2175177705000003,-0.0576769073109999,-0.0757701213509999,-0.0430888,0.01042108,-0.01235519
2023-11-06 22:35:52.657999872,-0.07749257,-0.05799498,-0.03656186,0.006094336,0.006122714,-0.006509231,0.002958863,0.001130611,0.002016913,0.2204766335000003,-0.0565462963109999,-0.0737532083509999,-0.04305888,0.01045149,-0.0123291
2023-11-06 22:35:52.673000192,-0.07750301,-0.05805594,-0.03659337,0.004369911,0.007220876,-0.003620667,0.002747362,0.0008183969,0.001942555,0.2232239955000003,-0.0557278994109999,-0.0718106533509999,-0.04305556,0.01046032,-0.0122993
2023-11-06 22:35:52.688000000,-0.07745579,-0.05814284,-0.03651134,0.002105,0.00764291,-0.007509067,0.002529773,0.0005154677,0.00187379,0.2257537685000003,-0.0552124317109999,-0.0699368633509999,-0.04305385,0.01045891,-0.01227125
2023-11-06 22:35:52.700999936,-0.07738119,-0.05826902,-0.03652182,-0.0009202668,0.01113972,-0.007107554,0.002606485,0.0002263875,0.002016798,0.2283602535000003,-0.0549860442109999,-0.0679200653509999,-0.04301605,0.01045472,-0.01224614
2023-11-06 22:35:52.714999808,-0.07728711,-0.05834876,-0.03652012,-0.004260269,0.01146072,-0.006866484,0.002550045,0.0003551013,0.00221064,0.2309102985000003,-0.0546309429109999,-0.0657094253509999,-0.04298167,0.01046241,-0.01221405
2023-11-06 22:35:52.728000000,-0.07732146,-0.05844253,-0.03646564,-0.0006432254,0.01116138,-0.00813263,0.002528142,0.0003882865,0.002228754,0.2334384405000003,-0.0542426564109999,-0.0634806713509999,-0.04294328,0.01046284,-0.01220034
2023-11-06 22:35:52.742000128,-0.07729137,-0.05853307,-0.03648907,-0.002101728,0.01228381,-0.00627927,0.002572374,0.0007781267,0.00234477,0.2360108145000003,-0.0534645297109999,-0.0611359013509999,-0.04289814,0.01048245,-0.01220197
2023-11-06 22:35:52.756999936,-0.07734004,-0.05859149,-0.0364916,0.0005948659,0.01085485,-0.004505739,0.00264151,0.0009375868,0.002315885,0.2386523245000003,-0.0525269429109999,-0.0588200163509999,-0.04285236,0.01049705,-0.01220156
2023-11-06 22:35:52.770999808,-0.07735467,-0.05868907,-0.03651119,0.001452304,0.0117731,-0.003154505,0.002924035,0.0007865725,0.00231468,0.2415763595000003,-0.0517403704109999,-0.0565053363509999,-0.04280271,0.01050447,-0.01217547
2023-11-06 22:35:52.784000000,-0.07728202,-0.05871616,-0.03656957,-0.002910223,0.009898126,7.050557e-05,0.003027722,0.0007253252,0.00226022,0.2446040815000003,-0.0510150452109999,-0.0542451163509999,-0.04275664,0.01051667,-0.01214692
2023-11-06 22:35:52.799000064,-0.07723807,-0.05878811,-0.03659288,-0.003929038,0.01000775,-0.0001844464,0.003232392,0.0005387145,0.002159289,0.2478364735000003,-0.0504763307109999,-0.0520858273509999,-0.04269636,0.01050662,-0.01216027
2023-11-06 22:35:52.812999936,-0.07724739,-0.05886211,-0.03665392,-0.002049251,0.01081121,0.001434012,0.003460034,0.000257881,0.002153997,0.2512965075000003,-0.0502184497109999,-0.0499318303509999,-0.04263063,0.01048795,-0.01218287
2023-11-06 22:35:52.825999872,-0.07726196,-0.05890691,-0.03668425,-0.0001067093,0.009522752,0.001913718,0.003564456,0.000134893,0.002129148,0.2548609635000003,-0.0500835567109999,-0.0478026823509999,-0.04257187,0.01048004,-0.01218278
2023-11-06 22:35:52.840000000,-0.0772491,-0.05895655,-0.03667986,-0.0008576975,0.009663468,0.0006149772,0.003763153,0.0002705127,0.002291548,0.2586241165000003,-0.0498130440109999,-0.0455111343509999,-0.04251543,0.0104859,-0.01215025
2023-11-06 22:35:52.852999936,-0.0772966,-0.05899458,-0.03667102,0.003298455,0.007112124,0.0005440786,0.00391067,-7.7769e-05,0.002392962,0.2625347865000003,-0.0498908130109999,-0.0431181723509999,-0.04245546,0.01047809,-0.01211516
2023-11-06 22:35:52.868000000,-0.07720565,-0.05893689,-0.03677069,-0.002569925,0.003208694,0.004419053,0.004083811,-0.0001881749,0.002592691,0.2666185975000003,-0.0500789879109999,-0.0405254813509999,-0.04240766,0.01046911,-0.0120718
2023-11-06 22:35:52.881999872,-0.07710197,-0.05888139,-0.03676563,-0.006806358,-0.0005385801,0.002101587,0.004166697,-0.0003398128,0.002718517,0.2707852945000003,-0.0504188007109999,-0.0378069643509999,-0.04236163,0.01044826,-0.01202848
2023-11-06 22:35:52.896000000,-0.07704746,-0.0589637,-0.03671982,-0.006424951,0.002856355,-0.002130499,0.004501153,-0.0006497607,0.003176801,0.2752864475000003,-0.0510685614109999,-0.0346301633509999,-0.04229426,0.01042181,-0.01197718
2023-11-06 22:35:52.908999936,-0.07703236,-0.05900389,-0.03676831,-0.005738964,0.004805723,0.0003094031,0.004385339,-0.0008335326,0.003470817,0.2796717865000003,-0.0519020940109999,-0.0311593463509999,-0.04223646,0.01040564,-0.0119236
2023-11-06 22:35:52.923000064,-0.07701433,-0.05902134,-0.03674189,-0.004276206,0.003678563,-0.001537472,0.00422144,-0.0004458599,0.003958887,0.2838932265000003,-0.0523479539109999,-0.0272004593509999,-0.04218383,0.01040861,-0.01185694
2023-11-06 22:35:52.936999936,-0.07702814,-0.05906092,-0.03685666,-0.003113574,0.005459361,0.003233906,0.004448259,-0.0003434115,0.004213022,0.2883414855000003,-0.0526913654109999,-0.0229874373509999,-0.0421307,0.01041418,-0.01180214
2023-11-06 22:35:52.951000064,-0.07688494,-0.05904201,-0.03706603,-0.01041207,0.005827404,0.01014948,0.00437039,-0.0003352687,0.004306654,0.2927118755000003,-0.0530266341109999,-0.0186807833509999,-0.04208665,0.01042496,-0.01174687
2023-11-06 22:35:52.964999936,-0.07664479,-0.05908619,-0.03711504,-0.02016521,0.006816093,0.009801535,0.004398597,-0.0003328798,0.004181167,0.2971104725000003,-0.0533595139109999,-0.0144996163509999,-0.04202895,0.01042473,-0.01169654
2023-11-06 22:35:52.980000000,-0.07651019,-0.05904575,-0.03710335,-0.01974561,0.007300498,-1.129008e-05,0.004413029,-0.0003045779,0.003953404,0.3015235015000003,-0.0536640918109999,-0.0105462123509999,-0.04196744,0.01042111,-0.01164502
2023-11-06 22:35:52.992999936,-0.076385,-0.05912004,-0.03715804,-0.01705086,0.005857581,0.001770518,0.004282641,-0.0003340209,0.003691454,0.3058061425000003,-0.0539981127109999,-0.0068547583509999,-0.04190777,0.01041567,-0.01161033
2023-11-06 22:35:53.006000128,-0.07638104,-0.05915977,-0.03713719,-0.01111656,0.005356579,1.626677e-05,0.004270825,-0.0001514743,0.003416455,0.3100769675000003,-0.0541495870109999,-0.0034383033509999,-0.04183024,0.01040343,-0.01160021
2023-11-06 22:35:53.020000000,-0.07639011,-0.05916426,-0.0372062,-0.007574226,0.004831342,0.003152196,0.004456172,-9.916531e-05,0.003219155,0.3145331395000003,-0.0542487523209999,-0.0002191483509999,-0.04174684,0.01039468,-0.01158691
2023-11-06 22:35:53.033999872,-0.07638843,-0.05915381,-0.03723298,-0.00563463,0.003538586,0.003631531,0.004632321,-2.164283e-05,0.002938119,0.3191654605000003,-0.0542703951509999,0.002718970649,-0.04167357,0.01039501,-0.01156078
2023-11-06 22:35:53.048000000,-0.07635405,-0.05913213,-0.03736161,-0.006730358,0.003424423,0.007757431,0.004722487,-0.0004041175,0.002576754,0.3238879475000003,-0.0546745126509999,0.005295724649,-0.04160615,0.01038604,-0.01153544
2023-11-06 22:35:53.061000192,-0.07629379,-0.05911124,-0.03743671,-0.008129158,0.002455203,0.008464436,0.004545408,-0.0008594231,0.001992112,0.3284333555000002,-0.0555339357509999,0.007287836649,-0.04155247,0.01037249,-0.01152655
2023-11-06 22:35:53.076000000,-0.0761877,-0.05914699,-0.037459,-0.01054172,0.003925377,0.00565477,0.004466223,-0.001105711,0.001510312,0.3328995785000002,-0.0566396467509999,0.008798148649,-0.0415011,0.01036324,-0.01152717
2023-11-06 22:35:53.089999872,-0.07610934,-0.05918984,-0.03749195,-0.0111834,0.00513118,0.004413121,0.004267977,-0.001209898,0.001021996,0.3371675555000002,-0.0578495447509999,0.009820144649,-0.04145487,0.01035459,-0.01153497
2023-11-06 22:35:53.102999808,-0.07606518,-0.05929157,-0.0375691,-0.009734652,0.009245575,0.004915849,0.004284942,-0.001170582,0.0008245552,0.3414524975000002,-0.0590201267509999,0.010644699849,-0.04139378,0.01034276,-0.01153571
2023-11-06 22:35:53.118000128,-0.07597356,-0.05925313,-0.03764718,-0.01162562,0.006131197,0.00653385,0.004128899,-0.0008875734,0.0003742508,0.3455813965000002,-0.0599077001509999,0.011018950649,-0.04134222,0.01034354,-0.01154081
2023-11-06 22:35:53.132000000,-0.07600146,-0.05924882,-0.0377297,-0.006893838,0.004451631,0.008850995,0.004044313,-0.0007022624,-0.0001951344,0.3496257095000002,-0.0606099625509999,0.010823816249,-0.04130212,0.01032716,-0.01156238
2023-11-06 22:35:53.144999936,-0.07599728,-0.05924544,-0.03777822,-0.004681759,0.00318487,0.008298324,0.003913938,-0.0002300622,-0.0006922568,0.3535396475000003,-0.0608400247509999,0.010131559449,-0.04126764,0.01032192,-0.01158919
2023-11-06 22:35:53.160000000,-0.0760022,-0.05930105,-0.03778164,-0.00261991,0.00527151,0.005593213,0.003923511,0.0003622828,-0.001056402,0.3574631585000002,-0.0604777419509999,0.009075157449,-0.04122297,0.01033351,-0.01161969
2023-11-06 22:35:53.174000128,-0.07610492,-0.05928333,-0.03770684,0.003543561,0.001650449,0.001604168,0.003558014,0.000979174,-0.001571624,0.3610211725000002,-0.0594985679509999,0.007503533449,-0.04118467,0.01035939,-0.01165563
2023-11-06 22:35:53.188000000,-0.07630445,-0.05930784,-0.03774701,0.01155158,0.001721865,0.004847824,0.003450825,0.001012404,-0.001775423,0.3644719975000002,-0.0584861639509999,0.005728110449,-0.04113865,0.01037581,-0.01168759
2023-11-06 22:35:53.201999872,-0.07640292,-0.0593254,-0.03791198,0.01113826,0.003530509,0.01141858,0.003278361,0.001416034,-0.001725622,0.3677503585000002,-0.0570701299509999,0.004002488449,-0.04110594,0.01042584,-0.01171594
2023-11-06 22:35:53.216000000,-0.07654348,-0.05933839,-0.03804213,0.01274026,0.004290556,0.01407705,0.003238061,0.001326065,-0.001720201,0.3709884195000003,-0.0557440649509999,0.002282287449,-0.04107126,0.010458,-0.0117449
2023-11-06 22:35:53.232000000,-0.07656339,-0.05934717,-0.03798171,0.0100888,0.002827888,0.006696373,0.002974816,0.001035354,-0.001761159,0.3739632355000002,-0.0547087109509999,0.000521128449,-0.04104105,0.01046509,-0.01177219
2023-11-06 22:35:53.244000000,-0.076453,-0.05938888,-0.03788495,0.002437219,0.003023149,-0.001973428,0.002651826,0.0008076682,-0.001741832,0.3766150615000003,-0.0539010427509999,-0.0012207035509999,-0.0410129,0.01046391,-0.01179718
2023-11-06 22:35:53.256000000,-0.07633333,-0.05939077,-0.03790858,-0.004350741,0.002630447,-0.001582897,0.002480347,0.0004304298,-0.001682831,0.3790954085000003,-0.0534706129509999,-0.0029035345509999,-0.0409831,0.01045704,-0.0118185
2023-11-06 22:35:53.269999872,-0.07626388,-0.05930847,-0.03778803,-0.005941967,-0.003362127,-0.006595851,0.002294142,0.0002986534,-0.001595049,0.3813895505000003,-0.0531719595509999,-0.0044985835509999,-0.04096068,0.01042613,-0.01183043
2023-11-06 22:35:53.284000000,-0.07626608,-0.05929667,-0.0377331,-0.003622587,-0.003573797,-0.00708766,0.002443905,0.0002703298,-0.001333297,0.3838334555000003,-0.0529016297509999,-0.0058318805509999,-0.04092538,0.01040103,-0.01183857
2023-11-06 22:35:53.299000064,-0.07632448,-0.05927218,-0.03767633,0.0007402033,-0.00402508,-0.007040507,0.002172239,0.0003313362,-0.001153354,0.3860056945000003,-0.0525702935509999,-0.0069852345509999,-0.04090426,0.01039826,-0.01184779
2023-11-06 22:35:53.312999936,-0.07639986,-0.05929494,-0.03764337,0.005043746,-0.002388365,-0.00584583,0.00190829,0.0005052069,-0.0009792222,0.3879139845000003,-0.0520650866509999,-0.0079644567509999,-0.0408846,0.01040874,-0.01185813
2023-11-06 22:35:53.328000000,-0.07644069,-0.05929539,-0.03765968,0.005353404,-0.001535,-0.002430408,0.001546338,0.0007140895,-0.0006445056,0.3894603225000003,-0.0513509971509999,-0.0086089623509999,-0.04087229,0.0104206,-0.01186148
2023-11-06 22:35:53.341000192,-0.07646011,-0.0593645,-0.0376457,0.00465433,0.001758393,-0.00252496,0.001374088,0.0007424063,-0.0003401602,0.3908344105000003,-0.0506085908509999,-0.0089491225509999,-0.04085631,0.01041542,-0.01187144
2023-11-06 22:35:53.355000064,-0.0764627,-0.05943841,-0.03774765,0.002685576,0.005966675,0.00259288,0.001123843,0.000262825,-7.087962e-05,0.3919582535000003,-0.0503457658509999,-0.0090200021709999,-0.04084634,0.01039698,-0.01187937
2023-11-06 22:35:53.368000000,-0.0763622,-0.05952296,-0.03769941,-0.00251141,0.007826904,-0.002059846,0.00060197,2.982454e-05,0.0001659323,0.3925602235000003,-0.0503159413109999,-0.0088540698709999,-0.0408518,0.01038701,-0.01187544
2023-11-06 22:35:53.382999808,-0.07624406,-0.05962366,-0.03765195,-0.006684447,0.009568526,-0.006443975,0.0002215865,-0.000187051,0.0003004497,0.3927818100000003,-0.0505029923109999,-0.0085536201709999,-0.0408579,0.01037285,-0.01187287
2023-11-06 22:35:53.397000192,-0.07619125,-0.05972642,-0.03761368,-0.006027912,0.01068864,-0.008445865,-0.0001036192,-0.0004478725,0.0005220819,0.3926781908000002,-0.0509508648109999,-0.0080315382709999,-0.04086654,0.01034458,-0.01185736
2023-11-06 22:35:53.408999936,-0.07620215,-0.05974565,-0.03755698,-0.003007796,0.007185875,-0.008841047,-0.0003496616,-0.0002801947,0.0009018202,0.3923285292000003,-0.0512310595109999,-0.0071297180709999,-0.04087666,0.01032058,-0.01182003
2023-11-06 22:35:53.424000000,-0.07631758,-0.05970688,-0.03754555,0.003162334,0.002061454,-0.005119742,-0.0004445736,4.950177e-05,0.001291173,0.3918839556000003,-0.0511815577409999,-0.0058385450709999,-0.0408833,0.01031209,-0.01177532
2023-11-06 22:35:53.437999872,-0.07647072,-0.05968973,-0.037405,0.01007913,-0.00170904,-0.007792969,-0.000483668,0.0005940858,0.001685446,0.3914002876000003,-0.0505874719409999,-0.0041530990709999,-0.04089197,0.01032687,-0.01173929
2023-11-06 22:35:53.452000000,-0.07665864,-0.05966711,-0.0372729,0.01682712,-0.004448475,-0.009375956,-0.0006002319,0.0008991284,0.002080237,0.3908000557000002,-0.0496883435409999,-0.0020728620709999,-0.04090468,0.01034009,-0.0116984
2023-11-06 22:35:53.464000000,-0.07675397,-0.0596251,-0.03724262,0.01589274,-0.005592304,-0.006347755,-0.0007917981,0.00114855,0.002497463,0.3900082576000002,-0.0485397935409999,0.000424600929,-0.04092209,0.01035087,-0.01163652
2023-11-06 22:35:53.477999872,-0.07676458,-0.05963981,-0.03714552,0.01218836,-0.004034005,-0.008403859,-0.0009644079,0.0009561069,0.002649395,0.3890438497000002,-0.0475836866409999,0.003073995929,-0.04094154,0.01033929,-0.01157847
2023-11-06 22:35:53.493999872,-0.07660224,-0.05963828,-0.03707649,0.0006713319,-0.002770179,-0.01034999,-0.00121343,0.0005929085,0.002798869,0.3878304197000002,-0.0469907781409999,0.005872864929,-0.04096638,0.01032319,-0.01152247
2023-11-06 22:35:53.507000064,-0.07647283,-0.05969256,-0.03698498,-0.00497251,7.76285e-05,-0.01289026,-0.001595296,0.0002172854,0.002939147,0.3862351237000002,-0.0467734927409999,0.008812011929,-0.04099867,0.01030898,-0.01148075
2023-11-06 22:35:53.519000064,-0.07643869,-0.05975701,-0.03690761,-0.004485269,0.002222441,-0.01380695,-0.001829993,-3.568083e-05,0.003162799,0.3844051307000002,-0.0468091735709999,0.011974810929,-0.04103047,0.010294,-0.01143433
2023-11-06 22:35:53.533999872,-0.07638398,-0.05977139,-0.03692685,-0.005589353,0.00210958,-0.009678929,-0.002095149,-0.0003784586,0.003264238,0.3823099817000002,-0.0471876321709999,0.015239048929,-0.04105576,0.01027512,-0.01138294
2023-11-06 22:35:53.548999936,-0.0763015,-0.05981572,-0.03692788,-0.007059202,0.003227754,-0.007830903,-0.002238633,-0.0005439264,0.00349487,0.3800713487000002,-0.0477315585709999,0.018733918929,-0.04107775,0.01025873,-0.01132539
2023-11-06 22:35:53.562000128,-0.07624454,-0.05990793,-0.03691211,-0.006745444,0.006403188,-0.007657756,-0.002287477,-0.000473112,0.003769373,0.3777838717000002,-0.0482046705709999,0.022503291929,-0.04110459,0.01024974,-0.01126903
2023-11-06 22:35:53.576999936,-0.07627186,-0.05993938,-0.03683656,-0.00220833,0.004938469,-0.008692831,-0.002578989,-0.0002127802,0.003997141,0.3752048827000002,-0.0484174507709999,0.026500432929,-0.04114915,0.010249,-0.01120884
2023-11-06 22:35:53.591000064,-0.07631443,-0.06003842,-0.03674435,0.001900976,0.006796469,-0.01085197,-0.002647562,0.0002055162,0.004378097,0.3725573207000002,-0.0482119345709999,0.030878529929,-0.04118726,0.01025671,-0.01114402
2023-11-06 22:35:53.604000000,-0.07631133,-0.06004496,-0.03678259,0.0004112084,0.005590963,-0.005757612,-0.002781816,0.000164992,0.004536493,0.3697755047000002,-0.0480469425709999,0.035415022929,-0.04121457,0.01025917,-0.01108778
2023-11-06 22:35:53.617000192,-0.07628942,-0.0600474,-0.03673813,-0.0008176848,0.003589667,-0.006145239,-0.002851581,-0.0001983859,0.004761921,0.3669239237000002,-0.0482453284709999,0.040176943929,-0.04124196,0.01024303,-0.01102559
2023-11-06 22:35:53.632000000,-0.07615488,-0.0600329,-0.03673232,-0.006688272,0.001991611,-0.005558293,-0.003168687,-0.0006564624,0.004903418,0.3637552367000002,-0.0489017908709999,0.045080361929,-0.04128894,0.0102218,-0.01095486
2023-11-06 22:35:53.645999872,-0.07597005,-0.06009823,-0.0366341,-0.01188322,0.003831958,-0.01022137,-0.003357398,-0.001138104,0.005098281,0.3603978387000002,-0.0500398948709999,0.050178642929,-0.04134054,0.01018779,-0.01088105
2023-11-06 22:35:53.660000000,-0.07580476,-0.06011324,-0.03658179,-0.01505124,0.003120441,-0.01109539,-0.003677397,-0.001435083,0.005268858,0.3567204417000002,-0.0514749778709999,0.055447500929,-0.04139973,0.01015645,-0.01080289
2023-11-06 22:35:53.673000192,-0.07567583,-0.06016392,-0.03652629,-0.01467257,0.004213552,-0.01205975,-0.00375624,-0.001423375,0.005507205,0.3529642017000002,-0.0528983528709999,0.060954705929,-0.04143941,0.01014081,-0.01072955
2023-11-06 22:35:53.687000064,-0.07553626,-0.06014968,-0.03648319,-0.01448529,0.004004558,-0.008695373,-0.003843662,-0.00135316,0.005546051,0.3491205397000002,-0.0542515128709999,0.066500756929,-0.0414866,0.01013479,-0.01065758
2023-11-06 22:35:53.701999872,-0.07551486,-0.06012958,-0.03644217,-0.01229324,-0.0003941827,-0.01045422,-0.004305592,-0.001220915,0.005561236,0.3448149477000001,-0.0554724278709999,0.072061992929,-0.04154909,0.01011357,-0.01058143
2023-11-06 22:35:53.716000000,-0.07551748,-0.06023188,-0.0363126,-0.006509142,0.002483842,-0.01433701,-0.004397679,-0.001074058,0.005985784,0.3404172687000001,-0.0565464858709999,0.078047776929,-0.04161088,0.01009365,-0.01049171
2023-11-06 22:35:53.729000192,-0.07558018,-0.06029044,-0.0361409,-0.0002793467,0.002043515,-0.01710153,-0.004900882,-0.001441976,0.00640698,0.3355163867000001,-0.0579884618709999,0.084454756929,-0.0416902,0.01004854,-0.01039219
2023-11-06 22:35:53.743000064,-0.07536688,-0.06050943,-0.03617662,-0.004873168,0.007914469,-0.01815734,-0.0050006,-0.001349811,0.007094192,0.3305157867000001,-0.0593382728709999,0.091548948929,-0.04175331,0.01002584,-0.01028345
2023-11-06 22:35:53.757999872,-0.07533005,-0.06044443,-0.03608102,-0.008797532,0.00581961,-0.01264448,-0.005196332,-0.001651934,0.007545712,0.3253194547000001,-0.0609902068709999,0.099094660929,-0.04182612,0.009982814,-0.01015795
2023-11-06 22:35:53.772000000,-0.07513901,-0.06050391,-0.03619321,-0.01491295,0.008124668,-0.005371448,-0.005128921,-0.002190758,0.007916011,0.3201905337000001,-0.0631809648709999,0.107010671929,-0.04189304,0.009946814,-0.01004013
2023-11-06 22:35:53.784000000,-0.07467321,-0.06065664,-0.03644282,-0.02984127,0.01255116,-0.00152671,-0.005123969,-0.002158978,0.008235724,0.3150665647000001,-0.0653399428709999,0.115246395929,-0.04196076,0.009935508,-0.009924804
2023-11-06 22:35:53.799000064,-0.07444861,-0.06068482,-0.03618805,-0.03290299,0.01519818,-0.005569367,-0.005199543,-0.002151714,0.008398871,0.3098670217000001,-0.0674916568709999,0.123645266929,-0.04204184,0.009872623,-0.009800571
2023-11-06 22:35:53.812999936,-0.07431336,-0.06074923,-0.03618801,-0.02929443,0.01179652,-0.008035851,-0.005372166,-0.001854272,0.008389005,0.3044948557000001,-0.0693459288709999,0.132034271929,-0.04212622,0.009833651,-0.009682546
2023-11-06 22:35:53.825999872,-0.074351,-0.06086622,-0.0361145,-0.02276886,0.01454665,-0.01059784,-0.005240267,-0.001366628,0.008468276,0.2992545887000001,-0.0707125568709999,0.140502547929,-0.04219874,0.00980942,-0.009567481
2023-11-06 22:35:53.841000192,-0.07418153,-0.06088908,-0.03613917,-0.01805531,0.009754227,-0.00948605,-0.005323349,-0.001255329,0.008493986,0.2939312397000001,-0.0719678858709999,0.148996533929,-0.04227574,0.009796645,-0.009449806
2023-11-06 22:35:53.855000064,-0.07402315,-0.06089437,-0.03615633,-0.01575029,0.007224532,-0.006734311,-0.005116084,-0.00128835,0.00867667,0.2888151557000001,-0.0732562358709999,0.157673203929,-0.04234103,0.009778658,-0.009324011
2023-11-06 22:35:53.867000064,-0.07390697,-0.06081302,-0.03624792,-0.01782508,0.002760696,-0.0008217763,-0.005096073,-0.001555678,0.008788608,0.2837190827000001,-0.0748119138709999,0.166461811929,-0.04241055,0.009744846,-0.009221823
2023-11-06 22:35:53.880000000,-0.07386369,-0.06082866,-0.03621496,-0.01419967,0.002496599,-0.002058213,-0.00500882,-0.002060013,0.008858088,0.2787102627000001,-0.0768719268709999,0.175319899929,-0.04247646,0.009689764,-0.009126034
2023-11-06 22:35:53.895000064,-0.07370982,-0.06086443,-0.03614844,-0.01632282,0.004013505,-0.005900047,-0.005001035,-0.002379365,0.009057201,0.2737092277000001,-0.0792512918709999,0.184377100929,-0.04254697,0.009638156,-0.009012004
2023-11-06 22:35:53.910000128,-0.07352949,-0.06088458,-0.0361633,-0.01930177,0.002283133,-0.007890086,-0.005410746,-0.002775827,0.009105187,0.2682984817000001,-0.0820271188709999,0.193482287929,-0.04263466,0.009590669,-0.008885406
2023-11-06 22:35:53.924000000,-0.0732441,-0.06091176,-0.03611644,-0.02320771,0.002495012,-0.005628038,-0.005770017,-0.002891064,0.009193116,0.2625284647000001,-0.0849181828709998,0.202675403929,-0.04272866,0.00954407,-0.008755915
2023-11-06 22:35:53.940999936,-0.07312899,-0.06075229,-0.03616801,-0.02486008,0.006963727,-0.005876182,-0.006076069,-0.002499666,0.009476464,0.2564523957,-0.0874178488709998,0.212151867929,-0.04284506,0.009517496,-0.008607486
2023-11-06 22:35:53.952000000,-0.07300125,-0.0609006,-0.03604203,-0.02478128,0.005647454,-0.002597445,-0.006561502,-0.002093077,0.009595959,0.2498908937,-0.0895109258709998,0.221747826929,-0.04297041,0.009484821,-0.00848053
2023-11-06 22:35:53.966000128,-0.07283919,-0.06094089,-0.0362031,-0.01938986,0.005135455,-0.00225772,-0.007037358,-0.001750363,0.009643847,0.2428535357,-0.0912612888709999,0.231391673929,-0.04308376,0.00947986,-0.008347961
2023-11-06 22:35:53.980000000,-0.07279108,-0.06096877,-0.03612158,-0.01612485,0.006137161,-0.005752147,-0.007593934,-0.00142115,0.01010981,0.2352596017,-0.0926824388709998,0.241501483929,-0.04320535,0.009464933,-0.008196354
2023-11-06 22:35:53.993999872,-0.07279482,-0.06107904,-0.03596758,-0.008571275,0.008027431,-0.01247004,-0.008067258,-0.0009092441,0.01035564,0.2271923437,-0.0935916829709998,0.251857123929,-0.04333132,0.009454682,-0.008058122
2023-11-06 22:35:54.007000064,-0.07286076,-0.06110226,-0.03593502,-0.001801707,0.006129545,-0.009592094,-0.008651912,-0.0007532685,0.01077436,0.2185404317,-0.0943449514709998,0.262631483929,-0.04346772,0.0094452,-0.007919753
2023-11-06 22:35:54.020000000,-0.07285705,-0.06114918,-0.03605508,-0.001817895,0.007666071,-0.0006684653,-0.00911119,-0.000709094,0.01112763,0.2094292417,-0.0950540454709998,0.273759113929,-0.04360571,0.009443613,-0.007778688
2023-11-06 22:35:54.033999872,-0.072754,-0.06112315,-0.03618503,-0.006766897,0.00562579,0.004536069,-0.00959655,-0.0006622727,0.01175821,0.1998326917,-0.0957163181709998,0.285517323929,-0.04375228,0.009445431,-0.007598858
2023-11-06 22:35:54.048000000,-0.07259303,-0.06115732,-0.03620134,-0.01159048,0.006238978,0.002133882,-0.009796839,-0.0008795224,0.01218316,0.1900358527,-0.0965958405709998,0.297700483929,-0.04389374,0.0094304,-0.00741937
2023-11-06 22:35:54.063000064,-0.07238021,-0.06115881,-0.03610244,-0.01659871,0.003973618,-0.004871727,-0.01044548,-0.0008540103,0.01257501,0.1795903727,-0.0974498508709998,0.310275493929,-0.04406979,0.009417664,-0.00722992
2023-11-06 22:35:54.078000128,-0.07223772,-0.06121282,-0.03613617,-0.01770652,0.006159955,-0.003971049,-0.01089717,-0.0007666337,0.0130151,0.1686932027,-0.0982164845709998,0.323290593929,-0.04426179,0.009417078,-0.007035483
2023-11-06 22:35:54.091000064,-0.07221397,-0.06115882,-0.03609058,-0.01270901,0.00140291,-0.003919352,-0.01153907,-0.0005289976,0.01357122,0.1571541327,-0.0987454821709998,0.336861813929,-0.04446592,0.009419309,-0.006824088
2023-11-06 22:35:54.104000000,-0.0721501,-0.06112309,-0.03595854,-0.01056778,-0.001653852,-0.009009619,-0.01205678,0.0001401984,0.01416162,0.1450973527,-0.0986052837709998,0.351023433929,-0.04464931,0.009432042,-0.006608307
2023-11-06 22:35:54.118000128,-0.07214928,-0.06107333,-0.03586911,-0.007134126,-0.004018114,-0.01039061,-0.01282241,0.0004230042,0.01489285,0.1322749427,-0.0981822795709998,0.365916283929,-0.04485102,0.009438809,-0.006377843
2023-11-06 22:35:54.132999936,-0.0720985,-0.06104957,-0.03589993,-0.008163575,-0.003151737,-0.006201201,-0.01361056,0.0003752146,0.01562954,0.1186643827,-0.0978070649709998,0.381545823929,-0.04507061,0.009384865,-0.006134985
2023-11-06 22:35:54.147000064,-0.07206762,-0.06103224,-0.03585706,-0.007142224,-0.003265653,-0.005926452,-0.01447467,-2.014218e-05,0.01625052,0.1041897127,-0.0978272071509998,0.397796343929,-0.0453,0.009361644,-0.005930989
2023-11-06 22:35:54.160000000,-0.07196988,-0.06102808,-0.03585773,-0.009652248,-0.002075566,-0.004343443,-0.01513488,-0.0002603569,0.01699938,0.0890548327,-0.0980875640509998,0.414795723929,-0.04550085,0.00938903,-0.005668403
2023-11-06 22:35:54.173000192,-0.07181808,-0.06107524,-0.03585052,-0.01344833,0.001552435,-0.00521524,-0.01570922,-0.0004398037,0.01801863,0.0733456127,-0.0985273677509998,0.432814353929,-0.04578276,0.009342339,-0.005396021
2023-11-06 22:35:54.187000064,-0.07171986,-0.06107014,-0.03590648,-0.01419799,0.002467287,-0.002052758,-0.01642665,-0.0008990486,0.0188916,0.0569189627,-0.0994264163509998,0.451705953929,-0.04603672,0.009354351,-0.005132948
2023-11-06 22:35:54.200999936,-0.07152624,-0.06100488,-0.03590991,-0.01885808,-0.0002976881,-0.002349468,-0.01745163,-0.0008933535,0.01973852,0.0394673327,-0.1003197698509998,0.471444473929,-0.04627607,0.009331061,-0.004800456
2023-11-06 22:35:54.214999808,-0.07139454,-0.06097421,-0.0359005,-0.01895431,-0.001355881,-0.00242613,-0.01822564,-0.001229703,0.02058065,0.0212416927,-0.1015494728509998,0.492025123929,-0.04657295,0.009309014,-0.004488351
2023-11-06 22:35:54.230000128,-0.07127549,-0.06091517,-0.03587617,-0.01812504,-0.003586337,-0.002306471,-0.01897818,-0.001409081,0.02169712,0.0022635127,-0.1029585538509998,0.513722243929,-0.04688344,0.009291407,-0.00413982
2023-11-06 22:35:54.244999936,-0.07127498,-0.06069908,-0.03577234,-0.01627553,-0.009795679,-0.007633503,-0.01975498,-0.001094145,0.02276531,-0.0174914672999999,-0.1040526988509998,0.536487553929,-0.04719164,0.009249168,-0.003809916
2023-11-06 22:35:54.256999936,-0.07116576,-0.06067827,-0.03567476,-0.01134926,-0.01247989,-0.006429547,-0.02032222,-0.001299136,0.0236238,-0.0378136872999999,-0.1053518348509998,0.560111353929,-0.04747249,0.009272346,-0.003427403
2023-11-06 22:35:54.270999808,-0.07103348,-0.06046182,-0.0357089,-0.01340756,-0.01536773,-0.008239729,-0.02124174,-0.001204414,0.02453099,-0.0590554272999999,-0.1065562488509998,0.584642343929,-0.04778595,0.009199838,-0.00309655
2023-11-06 22:35:54.286000128,-0.07080217,-0.06045799,-0.03540479,-0.01487419,-0.0150471,-0.01085086,-0.02211211,-0.001347292,0.02545292,-0.0811675372999999,-0.1079035408509998,0.610095263929,-0.04811173,0.009196995,-0.002733768
2023-11-06 22:35:54.299000064,-0.07088346,-0.0603347,-0.03530458,-0.01190097,-0.01406141,-0.01330289,-0.02309708,-0.001880708,0.0263268,-0.1042646172999999,-0.1097842488509998,0.636422063929,-0.048484,0.009096803,-0.002345236
2023-11-06 22:35:54.312000000,-0.07077798,-0.06030969,-0.03521593,-0.01105995,-0.01316846,-0.0119263,-0.02426416,-0.002247125,0.0272792,-0.1285287772999999,-0.1120313738509998,0.663701263929,-0.04885264,0.00907021,-0.001938652
2023-11-06 22:35:54.324999936,-0.07074678,-0.06036682,-0.03508995,-0.01012151,-0.009559873,-0.01813225,-0.02529517,-0.002421171,0.0283462,-0.1538239472999999,-0.1144525448509998,0.692047463929,-0.04920255,0.008997126,-0.001523898
2023-11-06 22:35:54.342000128,-0.07045066,-0.06038803,-0.03496455,-0.01457727,-0.007097919,-0.01700573,-0.02640511,-0.00276055,0.02944135,-0.1802290572999999,-0.1172130948509998,0.721488813929,-0.04960988,0.009002488,-0.001073777
2023-11-06 22:35:54.355000064,-0.07040346,-0.06032263,-0.03507432,-0.01616359,-0.00324364,-0.009473255,-0.0273603,-0.003335279,0.03036862,-0.2075893572999999,-0.1205483738509998,0.751857433929,-0.05005531,0.008902356,-0.0006532888
2023-11-06 22:35:54.368999936,-0.07024673,-0.06039786,-0.03497291,-0.01839536,0.003488912,-0.01082537,-0.02813943,-0.003621679,0.03151712,-0.2357287872999999,-0.1241700528509998,0.7833745539289999,-0.05048812,0.008848337,-0.0001977598
2023-11-06 22:35:54.382999808,-0.06991609,-0.06048238,-0.03499661,-0.02369066,0.005056793,-0.01107191,-0.02909541,-0.003650627,0.03264857,-0.2648241972999999,-0.1278206798509998,0.8160231239289999,-0.05090368,0.008828077,0.0003101924
2023-11-06 22:35:54.397000192,-0.06973368,-0.06058536,-0.03503643,-0.02387091,0.006066336,-0.009967804,-0.03005487,-0.003947868,0.03367736,-0.2948790672999999,-0.1317685478509998,0.8497004839289999,-0.05131986,0.008755775,0.0007983437
2023-11-06 22:35:54.410000128,-0.06945544,-0.06059605,-0.03499287,-0.02814954,0.007513047,-0.009935018,-0.03086742,-0.004241569,0.03468607,-0.3257464872999999,-0.1360101168509998,0.8843865539289999,-0.05177223,0.008706178,0.001291003
2023-11-06 22:35:54.424000000,-0.0692302,-0.06056449,-0.0351008,-0.03242553,0.006568884,-0.006715106,-0.03157971,-0.004561917,0.03563533,-0.3573261972999999,-0.1405720338509998,0.920021883929,-0.0522241,0.008612666,0.001791839
2023-11-06 22:35:54.438999808,-0.06912532,-0.06059095,-0.03500672,-0.03186797,0.00667873,-0.008771959,-0.03213102,-0.004595441,0.03668127,-0.3894572172999999,-0.1451674748509998,0.9567031539289998,-0.05268576,0.008541062,0.002335254
2023-11-06 22:35:54.451000064,-0.06886224,-0.06051208,-0.03496096,-0.03130568,0.001280639,-0.008927345,-0.03279107,-0.004346894,0.03757943,-0.4222482872999999,-0.1495143688509998,0.9942825839289998,-0.05315263,0.008509589,0.002892063
2023-11-06 22:35:54.466000128,-0.06871959,-0.06044488,-0.03480436,-0.02618524,-0.005506025,-0.01015645,-0.03352982,-0.00410206,0.03867479,-0.4557781072999999,-0.1536164288509998,1.032957373929,-0.05364424,0.008470589,0.003492143
2023-11-06 22:35:54.480999936,-0.06870054,-0.06021069,-0.03482989,-0.02125733,-0.01058451,-0.005785106,-0.03396633,-0.003592875,0.04008076,-0.4897444372999999,-0.1572093038509998,1.0730381339289998,-0.05418422,0.008400848,0.00412312
2023-11-06 22:35:54.492999936,-0.06854668,-0.06000011,-0.03486854,-0.0197606,-0.01645183,-0.001302378,-0.03450815,-0.003156784,0.04168059,-0.5242525872999999,-0.1603660878509998,1.1147187239289995,-0.05469862,0.008399778,0.004776015
2023-11-06 22:35:54.506000128,-0.06856927,-0.05983059,-0.03466184,-0.01276918,-0.02315858,-0.005358862,-0.035174,-0.002653228,0.04311817,-0.5594265873,-0.1630193158509998,1.1578368939289998,-0.05520509,0.008380331,0.005437535
2023-11-06 22:35:54.520000000,-0.0685346,-0.05959329,-0.03452938,-0.004598378,-0.02543119,-0.01216165,-0.03599831,-0.002492139,0.04503043,-0.5954248972999999,-0.1655114548509998,1.2028673239289998,-0.05576529,0.008326515,0.00613038
2023-11-06 22:35:54.535000064,-0.06854576,-0.05949721,-0.03446954,-0.004015147,-0.02703611,-0.006563563,-0.03696474,-0.002239061,0.04710745,-0.6323896373,-0.1677505158509998,1.2499747739289997,-0.05624764,0.008333603,0.006834984
2023-11-06 22:35:54.549999872,-0.06851935,-0.05921969,-0.03450105,-0.00457733,-0.02716153,-0.004505283,-0.03777231,-0.001778698,0.04945069,-0.6701619473,-0.1695292138509998,1.2994254639289995,-0.05678098,0.008333411,0.00756728
2023-11-06 22:35:54.563000064,-0.06846042,-0.05899197,-0.0345646,-0.006047452,-0.02853654,0.0005496219,-0.03873007,-0.002276008,0.05166982,-0.7088920173,-0.1718052218509998,1.3510952839289998,-0.05735173,0.008258505,0.008333743
2023-11-06 22:35:54.576999936,-0.06828835,-0.0588799,-0.03467501,-0.01579892,-0.02697242,0.004687402,-0.03990542,-0.003153522,0.05378961,-0.7487974372999999,-0.1749587438509998,1.4048848939289995,-0.05790475,0.008171482,0.00915539
2023-11-06 22:35:54.591000064,-0.06794952,-0.0587358,-0.03467447,-0.02585455,-0.02374589,0.002199162,-0.04110114,-0.004033434,0.05585116,-0.7898985772999999,-0.1789921778509998,1.4607360539289995,-0.05852858,0.008106147,0.009984804
2023-11-06 22:35:54.604000000,-0.06768691,-0.05864543,-0.0344343,-0.03203388,-0.01825112,-0.00572475,-0.04225343,-0.004526162,0.05801973,-0.8321520072999999,-0.1835183398509998,1.5187557839289998,-0.0592243,0.008030823,0.01085832
2023-11-06 22:35:54.617000192,-0.06737857,-0.05852197,-0.03440899,-0.03586021,-0.01773573,-0.007813441,-0.04368346,-0.00473109,0.06015848,-0.8758354673,-0.1882494298509998,1.5789142639289997,-0.05991965,0.007995484,0.01176289
2023-11-06 22:35:54.631000064,-0.06725731,-0.05831598,-0.03439837,-0.03480858,-0.02027659,-0.004370336,-0.04509055,-0.005042857,0.06227832,-0.9209260173,-0.1932922868509998,1.6411925839289996,-0.06059628,0.007896204,0.0127067
2023-11-06 22:35:54.644999936,-0.06687342,-0.05815306,-0.03451615,-0.03990822,-0.01903533,-0.001211411,-0.04601987,-0.004986321,0.06457839,-0.9669458873,-0.1982786078509998,1.7057709739289997,-0.0612483,0.007860621,0.0136645
2023-11-06 22:35:54.660000000,-0.06679302,-0.0579721,-0.03465957,-0.03617716,-0.02059297,0.0007793633,-0.04699954,-0.005445794,0.06658307,-1.0139454273,-0.2037244018509998,1.7723540439289998,-0.06191863,0.0077306,0.01465153
2023-11-06 22:35:54.673000192,-0.06647845,-0.05764109,-0.03472996,-0.03761557,-0.02200339,0.005849509,-0.04798776,-0.005581432,0.06861402,-1.0619331873,-0.2093058338509998,1.840968063929,-0.06260841,0.007714697,0.01564668
2023-11-06 22:35:54.687000064,-0.06640117,-0.05743651,-0.03492431,-0.03166213,-0.0247755,0.00721576,-0.0488694,-0.005839637,0.07065923,-1.1108025873,-0.2151454708509998,1.911627293929,-0.06326105,0.007598105,0.01666787
2023-11-06 22:35:54.700999936,-0.06617437,-0.05709814,-0.0348649,-0.03125861,-0.02920195,0.008122148,-0.05003054,-0.006206873,0.07294833,-1.1608331273,-0.2213523438509998,1.984575623929,-0.06399024,0.007524895,0.01774427
2023-11-06 22:35:54.716000000,-0.06595159,-0.05688162,-0.0347795,-0.03383597,-0.03223433,0.008340486,-0.05125874,-0.006988068,0.07523348,-1.2120918673,-0.2283404118509998,2.059809103929,-0.06473622,0.007392004,0.018871
2023-11-06 22:35:54.729000192,-0.06576703,-0.05641973,-0.03496693,-0.03226627,-0.03772358,0.008361854,-0.05272195,-0.007930909,0.07742193,-1.2648138173,-0.2362713208509998,2.1372310339289995,-0.06552862,0.007275654,0.02004395
2023-11-06 22:35:54.744000000,-0.06559123,-0.05605544,-0.03487499,-0.03813497,-0.04293443,0.01201549,-0.05413052,-0.008010949,0.07998043,-1.3189443373,-0.2442822698509998,2.2172114639289995,-0.06634039,0.007172868,0.02126019
2023-11-06 22:35:54.756999936,-0.06537527,-0.0557715,-0.03488424,-0.03658809,-0.04599848,0.008865391,-0.05546539,-0.008090041,0.08249675,-1.3744097273,-0.2523723108509998,2.299708213929,-0.06713593,0.007065583,0.02252267
2023-11-06 22:35:54.770999808,-0.06524914,-0.055264,-0.03491668,-0.03303857,-0.05279356,0.009280207,-0.05693573,-0.008502281,0.0850918,-1.4313454573,-0.2608745918509998,2.384800013928999,-0.06798843,0.006936946,0.02381089
2023-11-06 22:35:54.785000192,-0.06497955,-0.05487579,-0.03478603,-0.03112733,-0.05429431,0.0007978719,-0.05832675,-0.008550423,0.08776224,-1.4896722073,-0.2694250148509998,2.472562253928999,-0.06884816,0.006819759,0.02512401
2023-11-06 22:35:54.800000000,-0.06492456,-0.05438088,-0.03463108,-0.0295886,-0.05735315,-0.002321204,-0.06002917,-0.008668982,0.09052613,-1.5497013773,-0.2780939968509998,2.563088383929,-0.06974363,0.006693441,0.02646489
2023-11-06 22:35:54.813999872,-0.06485262,-0.05404462,-0.03476078,-0.02711652,-0.05581282,0.001732623,-0.06173344,-0.009000835,0.09339574,-1.6114348173,-0.2870948318509997,2.656484123929,-0.07060707,0.00657253,0.02782383
2023-11-06 22:35:54.828000000,-0.06471117,-0.05358694,-0.03485891,-0.02778729,-0.05542731,0.009324238,-0.06345921,-0.009232031,0.09640399,-1.6748940273,-0.2963268628509997,2.752888113928999,-0.07154067,0.006460051,0.02928735
2023-11-06 22:35:54.841000192,-0.0646677,-0.05329134,-0.03474082,-0.02472259,-0.05023337,0.008287353,-0.06485779,-0.00944697,0.09981908,-1.7397518173,-0.3057738328509997,2.852707193928999,-0.07247598,0.006321309,0.03076386
2023-11-06 22:35:54.855000064,-0.0645459,-0.0530761,-0.03484811,-0.02386566,-0.04937072,0.009657065,-0.06657863,-0.00986875,0.1031133,-1.8063304473,-0.3156425828509997,2.955820493928999,-0.07341626,0.006164093,0.03232391
2023-11-06 22:35:54.868999936,-0.06426202,-0.05275959,-0.03476188,-0.02495997,-0.04326029,0.003236186,-0.06822472,-0.01053798,0.1063158,-1.8745551673,-0.3261805628509997,3.062136293928999,-0.07444752,0.006013352,0.03389324
2023-11-06 22:35:54.881999872,-0.06396407,-0.05245617,-0.03470927,-0.02798192,-0.04140501,-0.001768255,-0.06990587,-0.01162982,0.1093183,-1.9444610373,-0.3378103828509997,3.171454593928999,-0.07549495,0.005841143,0.0355363
2023-11-06 22:35:54.897000192,-0.06386683,-0.0522927,-0.03463475,-0.03215575,-0.03537739,-0.004472369,-0.0711861,-0.0127072,0.1124271,-2.0156471373,-0.3505175828509997,3.283881693928999,-0.07652063,0.005588193,0.03719482
2023-11-06 22:35:54.908999936,-0.06368405,-0.05226399,-0.03450957,-0.02768718,-0.0276414,-0.01049701,-0.07213003,-0.01392454,0.1153232,-2.0877771673,-0.3644421228509997,3.3992048939289994,-0.07752461,0.005348326,0.03886752
2023-11-06 22:35:54.924000000,-0.06368778,-0.05217329,-0.03427891,-0.02246019,-0.02673685,-0.01356588,-0.0731433,-0.01583871,0.1176622,-2.1609204672999995,-0.3802808328509997,3.516867093928999,-0.07854092,0.005019283,0.04056531
2023-11-06 22:35:54.937999872,-0.06367352,-0.05215856,-0.03414816,-0.01090426,-0.01731865,-0.02104537,-0.0730826,-0.0184437,0.1199189,-2.2340030673,-0.3987245328509997,3.6367859939289993,-0.0794976,0.004675112,0.04225925
2023-11-06 22:35:54.952000000,-0.06393757,-0.05224855,-0.03397334,0.001601881,-0.01459239,-0.01672983,-0.07259239,-0.02141045,0.122004,-2.3065954573,-0.4201349828509997,3.7587899939289993,-0.08037171,0.004260434,0.04398859
2023-11-06 22:35:54.964999936,-0.06405592,-0.05202517,-0.03396323,0.01232456,-0.01355411,-0.01519671,-0.07132363,-0.02402005,0.1245615,-2.3779190873,-0.4441550328509997,3.8833514939289993,-0.08132289,0.003880465,0.04579487
2023-11-06 22:35:54.977999872,-0.06423552,-0.05192451,-0.0337844,0.0178989,-0.0185502,-0.01317983,-0.06959917,-0.02685774,0.1274103,-2.4475182573,-0.4710127728509997,4.010761793929,-0.08220705,0.003384354,0.04765955
2023-11-06 22:35:54.993999872,-0.06398785,-0.05166514,-0.03356382,0.008552932,-0.02209513,-0.01241564,-0.06704009,-0.02992983,0.1302737,-2.5145583473,-0.5009426028509998,4.141035493929,-0.0830774,0.002909464,0.04956416
2023-11-06 22:35:55.008000000,-0.06344316,-0.05128132,-0.03339285,-0.01975863,-0.03089833,-0.01763314,-0.06429965,-0.03279675,0.1330833,-2.5788579973,-0.5337393528509998,4.274118793929,-0.08393855,0.002364821,0.05152419
2023-11-06 22:35:55.020999936,-0.06250869,-0.05096234,-0.03318137,-0.05720474,-0.03302074,-0.02771606,-0.06083311,-0.03484199,0.1359988,-2.6396911073,-0.5685813428509998,4.410117593929,-0.08472022,0.001846692,0.05351247
2023-11-06 22:35:55.035000064,-0.06127508,-0.05044861,-0.03301525,-0.09459919,-0.04222463,-0.0317528,-0.0574731,-0.03660022,0.1384046,-2.6971642073,-0.6051815628509998,4.548522193929,-0.08543631,0.001333534,0.05553503
2023-11-06 22:35:55.048999936,-0.06004515,-0.04984826,-0.03285877,-0.1269604,-0.04642682,-0.03625326,-0.05370909,-0.0374472,0.1409831,-2.7508732973,-0.6426287628509998,4.689505293929,-0.08611953,0.0008135687,0.05758364
2023-11-06 22:35:55.064000000,-0.05865376,-0.04947318,-0.03288412,-0.1508565,-0.05253769,-0.03034339,-0.04998662,-0.03768439,0.1432798,-2.8008599173,-0.6803131528509998,4.832785093929,-0.08667096,0.0003670873,0.05968919
2023-11-06 22:35:55.076999936,-0.05758911,-0.04900774,-0.03273145,-0.1619335,-0.05477231,-0.03085315,-0.04652792,-0.03705022,0.1455041,-2.8473878373,-0.7173633728509998,4.978289193929,-0.08721478,-8.846004e-05,0.06176836
