time,acceleration_x,acceleration_y,acceleration_z
1698907573506,0.01160214,-0.001412185,-0.003943403
1698907573518,0.02689292,-0.0017782688,-0.006489936
1698907573533,0.04271527,-0.0015394104,-0.008789211
1698907573552,0.05881615,-2.763400000000164e-06,-0.01048586
1698907573571,0.07519654,0.0020754926,-0.01185523
1698907573592,0.09160245,0.0042862346,-0.013611518
1698907573609,0.1076043,0.0061305976,-0.016222307
1698907573626,0.12333619,0.0072754996,-0.0201056929999999
1698907573643,0.1384363,0.00724227705,-0.025887392
1698907573659,0.15238488,0.00556332305,-0.03431889
1698907573674,0.1646175,0.00336565405,-0.04591762
1698907573689,0.174463609,0.00132221205,-0.060362
1698907573703,0.181763483,-0.00098702095,-0.07662917
1698907573719,0.187304428,-0.00449727995,-0.09376583
1698907573734,0.191194319,-0.01026263595,-0.1104072999999999
1698907573749,0.193797018,-0.01917813995,-0.12517977
1698907573764,0.1954156369999999,-0.03091457995,-0.13733203
1698907573779,0.1963102733999999,-0.04523739995,-0.146291647
1698907573794,0.1968725468,-0.05976792995,-0.152311788
1698907573809,0.197034894,-0.07251683995,-0.155619644
1698907573823,0.1974033129,-0.08220711095,-0.1559836144
1698907573838,0.1983540136,-0.0898404909499999,-0.1532211674
1698907573852,0.2000726665999999,-0.0964349029499999,-0.1469828964
1698907573866,0.2025907595999999,-0.1024175379499999,-0.1378546904
1698907573880,0.2055880645999999,-0.1073503049499999,-0.1268183004
1698907573894,0.2086512736,-0.1108281739499999,-0.1150231204
1698907573908,0.2110415065999999,-0.1132426099499999,-0.1034629104
1698907573922,0.2131160106,-0.11546734195,-0.0926901904
1698907573936,0.2149377026,-0.11906810695,-0.0823708504
1698907573951,0.2172621556,-0.12525376895,-0.0718612904
1698907573965,0.2206902036,-0.13487374095,-0.0608623603999999
1698907573979,0.2254281605999999,-0.14721099095,-0.0493971004
1698907573993,0.2314821285999999,-0.16117972095,-0.0373333004
1698907574008,0.2389984656,-0.17591596095,-0.0244167603999999
1698907574021,0.2486077816,-0.19156797095,-0.0102254403999999
1698907574035,0.2603263115999999,-0.20882776095,0.0054570396
1698907574050,0.2741593215999999,-0.22689114095,0.0223373596
1698907574062,0.2893408115999999,-0.24503530095,0.0405037496
1698907574077,0.3054036915999999,-0.26242536095,0.0599582996
1698907574091,0.3222810616,-0.27822829095,0.0808720096
1698907574103,0.3403243916,-0.29229031095,0.1029869096
1698907574117,0.3588156016,-0.30499435095,0.1261411196
1698907574130,0.3768569516,-0.31576876095,0.1491842196
1698907574145,0.3935464415999999,-0.32491960295,0.1711344796
1698907574159,0.4088984915999999,-0.33299252895,0.1916676196
1698907574173,0.4231341716,-0.34112249295,0.2113033996
1698907574188,0.4363903916,-0.34958321195,0.2306296196
1698907574201,0.4489320416,-0.35831916095,0.2497558796
1698907574216,0.4596483016,-0.3669666689500001,0.2679023796
1698907574227,0.4675619486,-0.37453345095,0.2842727496
1698907574242,0.4728535166,-0.3809738899500001,0.2986110596
1698907574256,0.4760579426,-0.3883482149500001,0.3120108396000001
1698907574270,0.4781465216,-0.3987034749500001,0.3264618696
1698907574284,0.4800634236,-0.41266429495,0.3437897296000001
1698907574297,0.4816034556,-0.42697522495,0.3639152896000001
1698907574310,0.4826087486,-0.43908506495,0.3864326596
1698907574323,0.4823254067,-0.44724015595,0.4110232196
1698907574337,0.4804947217,-0.45145197995,0.4376943896
1698907574351,0.4774594007,-0.45360465095,0.4671537896000001
1698907574366,0.4737610597,-0.45550817295,0.4995793796000001
1698907574382,0.4695575717,-0.45780001795,0.5340163796000001
1698907574394,0.4645859467000001,-0.46092824595,0.5691682896000001
1698907574408,0.4585828617,-0.46491798195,0.6041560496000001
1698907574422,0.4512576977,-0.47094550595,0.6389581696000002
1698907574436,0.4435486187,-0.48126427595,0.6741310696000001
1698907574451,0.4363266057,-0.49724043595,0.7101213596000001
1698907574463,0.4296903317,-0.51686241595,0.7459010296000002
1698907574477,0.4229718757,-0.53655318595,0.7797931396000002
1698907574492,0.4155569707,-0.55432947595,0.8111825196000002
1698907574506,0.4077201147,-0.57041184595,0.8400237496000003
1698907574521,0.4003883787,-0.58623602595,0.8674091496000003
1698907574531,0.3932512797,-0.60182557595,0.8935134696000002
1698907574544,0.3854547497,-0.6151102359499999,0.9176855996000002
1698907574558,0.3768392727,-0.6247350039499999,0.9393839196000002
1698907574573,0.3673448937,-0.6310750059499999,0.9592622796000002
1698907574587,0.3577832337000001,-0.6358764609499998,0.9783604196000002
1698907574600,0.3485855927000001,-0.6403294939499998,0.9977257396000002
1698907574615,0.3397374857000001,-0.6439084829499998,1.0170086796000002
1698907574628,0.3307442487000001,-0.6455680549499998,1.0354417796000002
1698907574640,0.3207906517000001,-0.6445667279499998,1.0524427196
1698907574655,0.3096513017000001,-0.6415203009499998,1.0680738496000002
1698907574670,0.2974551917000002,-0.6376866109499998,1.0826480896
1698907574683,0.2845407517000001,-0.6344297679499998,1.0965769996
1698907574697,0.2710790417000001,-0.6324457649499998,1.1100734596
1698907574711,0.2576768517000001,-0.6314791363499999,1.1232147296
1698907574724,0.2441628517000001,-0.6310207865499998,1.1355387396
1698907574738,0.2303554917000001,-0.6304730387499998,1.1467492196
1698907574753,0.2162210717000001,-0.6305396769199998,1.1571187096
1698907574767,0.2021061517000001,-0.6325968749199998,1.1671544096
1698907574781,0.1879994117000001,-0.6369741119199999,1.1771319846
1698907574795,0.1740518517000001,-0.6435976339199999,1.1873283846
1698907574807,0.1599525217000001,-0.6516288779199999,1.1981069846
1698907574820,0.1458440317000001,-0.66077804792,1.2093903446
1698907574834,0.1315533717000001,-0.67077829792,1.2216519046
1698907574849,0.1173382417000001,-0.68141064792,1.2347534446
1698907574864,0.1031063117000001,-0.69207316792,1.2486727646000002
1698907574876,0.0886595117000001,-0.70222520792,1.2631034946000002
1698907574891,0.0739171817000001,-0.70928969692,1.2770318346000002
1698907574904,0.0608599617000001,-0.71285894392,1.2897634846000003
1698907574918,0.0501420117000001,-0.71490609892,1.3017508946000005
1698907574932,0.0417883467000001,-0.71717944492,1.3142233346000003
1698907574946,0.0353518717000001,-0.72023666292,1.3268973146000005
1698907574959,0.0303717107000001,-0.7233083809199999,1.3394392546000002
1698907574973,0.0264021047000001,-0.7264719839199999,1.3519900046000002
1698907574988,0.0230254397000001,-0.7304307429199999,1.3649537646000005
1698907575002,0.0200553407000001,-0.7353781519199999,1.3777669846000002
1698907575014,0.0172885917000001,-0.7406907239199999,1.3902399946
1698907575029,0.0141572527000001,-0.7458885489199999,1.4025529746
1698907575043,0.0102456007000001,-0.7505025859199999,1.4154410646
1698907575058,0.0044657877000001,-0.7558879209199999,1.4313977446
1698907575071,-0.0024229242999998,-0.7619138669199998,1.4477962746
1698907575086,-0.0096067922999998,-0.7677181279199998,1.4646777246
1698907575100,-0.0178895002999998,-0.7740802549199999,1.4820541346
1698907575113,-0.0269955872999998,-0.7809519679199999,1.5004291846
1698907575127,-0.0366252172999998,-0.7881169539199999,1.5196202546
1698907575140,-0.0452119252999998,-0.79405326392,1.5386543146
1698907575155,-0.0535453112999998,-0.79888324792,1.5564216646
1698907575169,-0.0610102202999998,-0.8020817219199999,1.5734540746
1698907575184,-0.0666877362999998,-0.8043827179199999,1.5886769746
1698907575197,-0.0693668192999998,-0.8060542239199999,1.6017473046
1698907575210,-0.0689159604999998,-0.8082346499199999,1.6134478546
1698907575225,-0.0663349924999998,-0.81191411192,1.6245905146
1698907575237,-0.0619963264999998,-0.81697812492,1.6354321446
1698907575251,-0.0566991404999998,-0.82252725992,1.6455613946
1698907575266,-0.0509573174999998,-0.82819950192,1.6551766916
1698907575279,-0.0452017084999998,-0.83419669492,1.6641596496000002
1698907575294,-0.0402074034999998,-0.83992440692,1.6730125666000002
1698907575308,-0.0356715894999998,-0.84495237392,1.6815846816000002
1698907575321,-0.0311572054999998,-0.84876338492,1.6902406056
1698907575335,-0.0262567014999998,-0.85181853892,1.6992055246000002
1698907575348,-0.0206259624999998,-0.85437356692,1.7084775606000002
1698907575362,-0.0141357694999998,-0.8568415029199999,1.7181252056000005
1698907575377,-0.0071175564999998,-0.8595874619199999,1.7286151456000003
1698907575392,0.0003337025000001,-0.8627619409199999,1.7401850456000003
1698907575405,0.0076095255000001,-0.8653645589199999,1.7522688656000005
1698907575421,0.0142790925000001,-0.8666838209199998,1.7647560556000004
1698907575434,0.0203630005000001,-0.8664904051199999,1.7779475756000005
1698907575447,0.0260667235000001,-0.8657638529199999,1.7917761856000003
1698907575461,0.0320773895000001,-0.8648683130199999,1.8064710056000004
1698907575474,0.0384294905000001,-0.8642083558199999,1.8218769556000003
1698907575489,0.0451998205000001,-0.8640603204199999,1.8379436256000004
1698907575502,0.0525000655000001,-0.8641840182199999,1.8540643256000005
1698907575516,0.0602336075000001,-0.8644040316199999,1.8699075556000004
1698907575530,0.0689498645000001,-0.8650666833199999,1.8849713356000004
1698907575543,0.0783406945000001,-0.86623397732,1.8991151656000005
1698907575558,0.0881799555000001,-0.86794016932,1.9124096956000003
1698907575571,0.0985677055000001,-0.8696216943199999,1.9249629856000008
1698907575586,0.1090808355000001,-0.8707066053199999,1.936383185600001
1698907575599,0.1207733755000001,-0.8713812146199998,1.9460837026000009
1698907575614,0.1338796655000001,-0.8722202574199999,1.9548817876000009
1698907575628,0.1478397155000001,-0.8737942014199999,1.9632708606000009
1698907575642,0.1623701955000001,-0.8758464164199998,1.9708753506000007
1698907575656,0.1778541355000001,-0.8761088641199998,1.9777493936000008
1698907575669,0.1934542955000001,-0.8739025401199998,1.9836392386000008
1698907575684,0.2093263955000001,-0.8690996041199998,1.9890384496000009
1698907575697,0.2247946355000001,-0.8622595221199998,1.9945927596000008
1698907575711,0.2397341555000001,-0.8543150061199998,2.000933934600001
1698907575725,0.2536344155000002,-0.8457353601199997,2.0085847716000007
1698907575739,0.2672686455000002,-0.8363949731199998,2.0174746996000006
1698907575752,0.2802961555000002,-0.8266911521199998,2.0273965246000007
1698907575766,0.2928665155000002,-0.8158892521199997,2.038133174600001
1698907575780,0.3043162455000002,-0.8034949621199997,2.0493942946000008
1698907575795,0.3145960155000002,-0.7883555321199998,2.0612021246000007
1698907575808,0.3242731405000003,-0.7711414721199997,2.0734954446000007
1698907575824,0.3343647805000003,-0.7521842221199997,2.0864501146000007
1698907575836,0.3451250405000003,-0.7320383021199997,2.100298514600001
1698907575850,0.3568051905000003,-0.7110321921199997,2.114674544600001
1698907575863,0.3692661005000003,-0.6894044321199997,2.129026294600001
1698907575878,0.3818414805000003,-0.6660828821199997,2.142471144600001
1698907575891,0.3939808305000003,-0.6404749421199997,2.154530164600001
1698907575906,0.4050181905000003,-0.6123183121199997,2.165008304600001
1698907575919,0.4147595115000003,-0.5824897321199997,2.174156479600001
1698907575933,0.4235926845000003,-0.5525886221199997,2.182527044600001
1698907575948,0.4321903715000003,-0.5239136921199997,2.190153849600001
1698907575961,0.4403546075000003,-0.4970010021199997,2.196824294600001
1698907575974,0.4478001265000003,-0.4708141621199997,2.202499658600001
1698907575988,0.4539848585000003,-0.4441729421199997,2.206642841600001
1698907576002,0.4588011015000003,-0.4162657421199996,2.2090621786000013
1698907576018,0.4624551005000004,-0.3871922721199997,2.209825546600001
1698907576031,0.4649895165000003,-0.3573772921199997,2.209350541500001
1698907576045,0.4665252875000004,-0.3274251721199996,2.208046876500001
1698907576060,0.4670845638000004,-0.2977148621199996,2.205961740500001
1698907576071,0.4667980619000004,-0.2683290121199996,2.202933070500001
1698907576085,0.4649527219000004,-0.2391492621199996,2.198673223500001
1698907576100,0.4610335549000004,-0.2091046521199996,2.192852063500001
1698907576114,0.4543556759000004,-0.1777267621199996,2.185702124500001
1698907576129,0.4457132409000004,-0.1457491721199996,2.177291517500001
1698907576143,0.4357760739000004,-0.1150379621199996,2.1682238915000007
1698907576155,0.4251507539000004,-0.0866387021199996,2.158875234500001
1698907576170,0.4143692339000004,-0.0616037721199996,2.149334674500001
1698907576184,0.4036793439000004,-0.0406083721199996,2.1397997695000006
1698907576197,0.3934349439000004,-0.0240900121199996,2.1305663365000007
1698907576211,0.3839213129000004,-0.0118361221199996,2.1220348965000007
1698907576227,0.3756356529000004,-0.0030717311199996,2.1146719475000006
1698907576238,0.3685842429000004,0.0026678478800003,2.1087913115000005
1698907576253,0.3626874019000005,0.0059115918800003,2.1045685445000006
1698907576268,0.3577037729000005,0.0076831408800003,2.101754786500001
1698907576281,0.3533417509000005,0.0091142518800003,2.0994260745000006
1698907576295,0.3486984539000005,0.0118237458800003,2.096951667500001
1698907576310,0.3429255079000005,0.0162405768800003,2.093879065500001
1698907576324,0.3350470189000005,0.0223578318800003,2.089916895500001
1698907576337,0.3251923709000004,0.0302943108800003,2.084813394500001
1698907576351,0.3131992209000004,0.0388239138800003,2.0791284685000013
1698907576365,0.3002912209000005,0.0472321978800003,2.0731614215000014
1698907576380,0.2873330909000005,0.0542495138800003,2.067253180500001
1698907576393,0.2751308509000005,0.0590620578800003,2.061596395500001
1698907576406,0.2634041209000005,0.0612150988800003,2.0563797155000008
1698907576422,0.2518012409000005,0.0614645915800003,2.051502255500001
1698907576434,0.2402827809000005,0.0597416425800003,2.046935581500001
1698907576447,0.2290142209000004,0.0559133455800003,2.042583348500001
1698907576462,0.2181026909000004,0.0497905165800003,2.038977439500001
1698907576476,0.2080021409000004,0.0410894825800003,2.0357855595000007
1698907576490,0.1994095159000004,0.0294564925800003,2.032460574500001
1698907576504,0.1919293939000004,0.0154608625800003,2.0285949745000007
1698907576519,0.1847870379000004,7.333258000033656e-05,2.0235229585000005
1698907576533,0.1777464889000004,-0.0147148774199996,2.0154892735000005
1698907576546,0.1700238809000004,-0.0264388774199996,2.0025809735000006
1698907576560,0.1596478109000005,-0.0318444754199996,1.983227243500001
1698907576575,0.1451913509000005,-0.0281255464199996,1.956058133500001
1698907576589,0.1260098109000005,-0.0153575664199996,1.9210059435000009
1698907576602,0.1019694109000004,0.0036583235800003,1.8790581735000007
1698907576615,0.0735920809000005,0.0240356135800003,1.8318467235000009
1698907576631,0.0415105509000005,0.0409494235800003,1.7811368835000008
1698907576643,0.0071245009000004,0.0514354635800003,1.7290654935000007
1698907576657,-0.0284976290999995,0.0541953435800003,1.6772975935000007
1698907576671,-0.0637431290999995,0.0491614825800003,1.6267561135000008
1698907576685,-0.0972799590999995,0.0371415725800003,1.5780798035000008
1698907576699,-0.1283501090999995,0.0180917925800003,1.5321230535000008
1698907576714,-0.1560493590999995,-0.0073423974199996,1.4896910835000008
1698907576728,-0.1798370990999995,-0.0370033674199996,1.4509351835000008
1698907576740,-0.1993788190999995,-0.0686945574199996,1.4161928035000009
1698907576754,-0.2142175790999995,-0.0993279374199996,1.385512933500001
1698907576769,-0.2242073210999995,-0.1268103874199996,1.3588326135000008
1698907576783,-0.2285430020999995,-0.1500019874199996,1.3362362535000007
1698907576797,-0.2273884760999995,-0.1693195274199996,1.3174503635000008
1698907576811,-0.2212480190999995,-0.1840409574199996,1.3021169535000008
1698907576825,-0.2106288390999995,-0.1932599804199996,1.2899138635000007
1698907576838,-0.1962655890999995,-0.1964635684199996,1.2809081355000007
1698907576852,-0.1784640890999995,-0.1947625644199996,1.274868959500001
1698907576867,-0.1578303490999995,-0.1898302024199996,1.2723025355000006
1698907576880,-0.1343548390999995,-0.1827266484199996,1.273138291300001
1698907576893,-0.1088474190999995,-0.1741031494199996,1.2765174343000008
1698907576907,-0.0813320890999995,-0.1646814534199996,1.2823643603000008
1698907576921,-0.0529900890999995,-0.1546626634199996,1.2901890103000009
1698907576934,-0.0239525490999995,-0.1440166934199996,1.2996883373000008
1698907576949,0.0056163909000004,-0.1336568234199996,1.310771237300001
1698907576962,0.0356494509000004,-0.1243700754199996,1.3230891673000007
1698907576976,0.0663945709000004,-0.1164242494199996,1.3363015673000007
1698907576991,0.0977663509000004,-0.1101032874199996,1.3503097773000008
1698907577004,0.1300715809000004,-0.1052546204199996,1.365015667300001
1698907577018,0.1630524409000004,-0.1012975904199996,1.3800379873000006
1698907577033,0.1967438809000005,-0.0972101194199996,1.3954974873000006
1698907577046,0.2311159709000005,-0.0929925014199996,1.4110055373000006
1698907577059,0.2662118509000005,-0.0889587834199996,1.4264403073000005
1698907577074,0.3017463909000005,-0.0851079734199996,1.4416459873000005
1698907577088,0.3377325209000005,-0.0815960854199996,1.4566522773000006
1698907577101,0.3738855209000005,-0.0780820324199996,1.4711584573000005
1698907577116,0.4098529709000005,-0.0740891714199996,1.4850600573000006
1698907577130,0.4457112909000005,-0.0691466704199996,1.4981217973000005
1698907577143,0.4808288609000005,-0.0624867884199996,1.5104544073000006
1698907577158,0.5150041509000005,-0.0540989884199996,1.5220877773000006
1698907577171,0.5479605109000005,-0.0444625974199996,1.5331894873000005
1698907577186,0.5796162409000005,-0.0342045074199996,1.5435361173000004
1698907577199,0.6095976509000005,-0.0234614474199996,1.5532360573000004
1698907577214,0.6376575309000005,-0.0126746674199996,1.5623673723000004
1698907577228,0.6636435709000006,-0.0018867874199996,1.5709535243000003
1698907577241,0.6877213909000006,0.0087097125800003,1.5788503663000004
1698907577256,0.7093190509000006,0.0190033725800003,1.5860702403000004
1698907577270,0.7285799609000005,0.0291738425800003,1.5923043713000005
1698907577281,0.7456963909000005,0.0393112625800003,1.5972274993000004
1698907577296,0.7602428409000005,0.0487618085800003,1.6008001213000005
1698907577311,0.7720320209000004,0.0574733105800003,1.6031198233000006
1698907577325,0.7810775089000005,0.0655128965800003,1.603989506100001
1698907577338,0.7876092449000005,0.0732274835800003,1.6034809975000006
1698907577353,0.7917804939000005,0.0806735365800003,1.6013738895000007
1698907577366,0.7937365229000005,0.0878617195800003,1.5975459765000006
1698907577380,0.7934833193000005,0.0944051625800003,1.5921883055000006
1698907577394,0.7910123133000004,0.0999889125800003,1.5854367575000006
1698907577408,0.7864415043000005,0.1044100885800003,1.5773105595000003
1698907577422,0.7801893913000005,0.1076007635800003,1.5676817495000006
1698907577437,0.7719884483000006,0.1098161755800003,1.5565758595000003
1698907577449,0.7619842783000006,0.1111075295800003,1.5438903195000004
1698907577463,0.7501064683000006,0.1118466330800003,1.5295343495000004
1698907577476,0.7366459883000006,0.1120929915800003,1.5132337095000004
1698907577491,0.7221632683000007,0.1119518286800003,1.4951835095000003
1698907577505,0.7069477083000006,0.1112736378800003,1.4755510695000005
1698907577520,0.6912919883000006,0.1097892288800003,1.4551550395000004
1698907577533,0.6756343483000006,0.1075179348800003,1.4343049295000003
1698907577548,0.6594399583000006,0.1045330208800003,1.4137027895000005
1698907577561,0.6424117283000006,0.1011051278800003,1.3934319095000005
1698907577575,0.6242661883000006,0.0968329048800003,1.3739537495000005
1698907577588,0.6048417783000006,0.0916839728800003,1.3553865895000003
1698907577602,0.5837820583000006,0.0861335878800003,1.3380217095000004
1698907577617,0.5611157883000006,0.0809855768800003,1.3218812295000004
1698907577630,0.5368294783000006,0.0766303198800003,1.3071520095000004
1698907577645,0.5110441083000006,0.0737240998800003,1.2937252295000004
1698907577659,0.4837719183000005,0.0716559258800003,1.2817802795000004
1698907577672,0.4552909383000005,0.0703319438800003,1.2711981195000004
1698907577686,0.4253593783000005,0.0692828688800003,1.2616540855000005
1698907577700,0.3940379283000005,0.0688863077800003,1.2530534075000004
1698907577714,0.3615254083000005,0.0691350835800003,1.2449741585000005
1698907577728,0.3282799283000005,0.0702118265800003,1.2369276895000003
1698907577741,0.2945933083000005,0.0716282845800003,1.2289376235000005
1698907577757,0.2607850183000005,0.0727322595800003,1.2209857745000006
1698907577769,0.2272270983000005,0.0730770081800003,1.2129049495000006
1698907577783,0.1941279883000005,0.0720486111800003,1.2047060175000006
1698907577797,0.1618113683000005,0.0698954901800003,1.1962000235000003
1698907577810,0.1299961383000005,0.0668284091800003,1.1873100725000003
1698907577825,0.0987978783000005,0.0626813111800003,1.1779792475000006
1698907577839,0.0685732683000005,0.0576227711800003,1.167973097500001
1698907577853,0.0394161483000005,0.0514564751800003,1.1574926075000007
1698907577867,0.0115110883000005,0.0443519111800003,1.1465466875000008
1698907577880,-0.0147565816999994,0.0361511531800003,1.1354482075000008
1698907577894,-0.0392640616999995,0.0273006641800003,1.1242794375000007
1698907577908,-0.0619778416999994,0.0179390241800003,1.1134305375000006
1698907577923,-0.0829386816999994,0.0084760331800003,1.1029966075000006
1698907577935,-0.1015789616999994,-0.0005892748199996,1.0929180575000006
1698907577951,-0.1180535316999994,-0.0087378138199996,1.083032778500001
1698907577963,-0.1329547916999995,-0.0158543658199996,1.0733097295000007
1698907577978,-0.1460826616999995,-0.0217467958199996,1.0635573535000007
1698907577991,-0.1575271816999995,-0.0270139668199996,1.0539965815000008
1698907578005,-0.1673170326999995,-0.0316415648199996,1.0445329275000008
1698907578019,-0.1755580266999995,-0.0355086658199996,1.0351370095000008
1698907578033,-0.1822749136999995,-0.0381690758199996,1.0258470525000007
1698907578048,-0.1878967556999995,-0.0398168718199996,1.0167551365000007
1698907578062,-0.1923898846999995,-0.0410207248199996,1.0079306285000007
1698907578075,-0.1959214906999995,-0.0418806246199996,0.9993794125000008
1698907578089,-0.1986149356999995,-0.0424263582199996,0.9910659825000008
1698907578103,-0.2011686506999995,-0.0425507940199996,0.9830869435000008
1698907578117,-0.2040778226999995,-0.0421359988199996,0.9755570545000009
1698907578131,-0.2071483036999994,-0.0411447560199996,0.9681581885000008
1698907578145,-0.2104280166999994,-0.0396869100199996,0.9611121135000008
1698907578158,-0.2144760836999994,-0.0374773460199996,0.954649363500001
1698907578172,-0.2192149626999994,-0.0351988350199996,0.949121017500001
1698907578186,-0.2245496966999994,-0.0330151000199996,0.944690757500001
1698907578201,-0.2300985476999994,-0.0310458270199996,0.941442160500001
1698907578215,-0.2361113236999994,-0.0291590040199996,0.9390360625000008
1698907578227,-0.2421117466999994,-0.0273096960199996,0.937066983500001
1698907578244,-0.2484988126999994,-0.0255628090199996,0.935458553500001
1698907578255,-0.2553214376999995,-0.0235819980199996,0.934307344500001
1698907578269,-0.2623045156999994,-0.0217840960199996,0.933649015600001
1698907578284,-0.2689962466999994,-0.0199782510199996,0.9330975059000012
1698907578297,-0.2752240546999994,-0.0181143080199996,0.932238364100001
1698907578310,-0.2814367436999994,-0.0161166360199996,0.931326524100001
1698907578325,-0.2870134226999994,-0.0145028390199996,0.930311373100001
1698907578338,-0.2920457946999994,-0.0135835434199996,0.929121829100001
1698907578352,-0.2965754546999994,-0.0126982477199996,0.9274918251000008
1698907578366,-0.3008003316999994,-0.0118778837199996,0.925424301100001
1698907578380,-0.3044802516999994,-0.0108492127199996,0.922701071100001
1698907578394,-0.3076272756999994,-0.0094451267199996,0.919482783100001
1698907578408,-0.3103268726999994,-0.0076271817199996,0.916035676100001
1698907578422,-0.3125970486999994,-0.0058834797199996,0.912582780100001
1698907578435,-0.3142238516999994,-0.0041158447199996,0.909016893100001
1698907578451,-0.3151763206999994,-0.0025970977199996,0.905681967100001
1698907578464,-0.3157276786999994,-0.0011025687199996,0.9029507761000012
1698907578478,-0.3158835298999994,0.0008991382800003,0.900677790100001
1698907578492,-0.3157694289999994,0.0038200412800003,0.8985805221000011
1698907578507,-0.3152754747999994,0.0070988012800003,0.896852018100001
1698907578521,-0.3144124981999994,0.0102574372800003,0.895569634100001
1698907578534,-0.3133834081999994,0.0125865092800003,0.894947816700001
1698907578547,-0.3120102491999994,0.0139385542800003,0.894704893200001
1698907578562,-0.3103236621999994,0.0143524129800003,0.894856478900001
1698907578577,-0.3082203071999994,0.0142573470700003,0.8950951242000009
1698907578591,-0.3061828421999994,0.0139629833700003,0.895500360900001
1698907578603,-0.3040337601999994,0.0136291692700003,0.895937765000001
1698907578617,-0.3015883541999994,0.0133031399700003,0.896374566500001
1698907578632,-0.2988562001999994,0.0126277053700003,0.896848809700001
1698907578645,-0.2959942771999994,0.0112805093700003,0.897411886000001
1698907578658,-0.2928978991999994,0.0092506533700003,0.898065190200001
1698907578672,-0.2895738811999994,0.0070339933700003,0.898497056600001
1698907578686,-0.2863889121999994,0.0046401853700003,0.898877774600001
1698907578701,-0.2832882051999995,0.0021369563700003,0.899197026600001
1698907578715,-0.2805533531999994,-0.0001890436299996,0.899889283600001
1698907578728,-0.2779408401999995,-0.0025743786299996,0.900859033400001
1698907578740,-0.2753665161999994,-0.0049121736299996,0.9022842264000008
1698907578755,-0.2726066611999995,-0.0074397796299996,0.903999064400001
1698907578769,-0.2701388291999995,-0.0096369856299996,0.905991695400001
1698907578784,-0.2683021551999995,-0.0115957576299997,0.908466078400001
1698907578798,-0.2670165281999995,-0.0133947736299997,0.911345787400001
1698907578812,-0.2660322331999994,-0.0145953096299997,0.9143923784000012
1698907578825,-0.2654818773999994,-0.0152803032299997,0.9176305524000012
1698907578839,-0.2654219672799994,-0.0157645901299997,0.9211209154000012
1698907578853,-0.2655412184799994,-0.0164341697299997,0.9247348474000012
1698907578867,-0.2657040889799995,-0.0176099997299997,0.9287316914000012
1698907578883,-0.2661479058799995,-0.0190508727299997,0.9330292714000012
1698907578895,-0.2664065478799994,-0.0209437827299997,0.9376464204000012
1698907578910,-0.2667005333799994,-0.0224014487299997,0.9425455324000012
1698907578923,-0.2664912092799994,-0.0232901615299997,0.9474913734000012
1698907578937,-0.2662066644799994,-0.0234212879299997,0.9523992124000012
1698907578951,-0.2657519885799994,-0.0235487259299997,0.9574801474000012
1698907578965,-0.2650404464799994,-0.0243041588299997,0.9628743834000012
1698907578978,-0.2638755434799994,-0.0258617008299997,0.9684649334000012
1698907578992,-0.2624262334799994,-0.0279448608299997,0.9741994184000012
1698907579005,-0.2610321234799994,-0.0304439978299996,0.9799931754000012
1698907579019,-0.2593023594799994,-0.0324438808299996,0.985808149400001
1698907579034,-0.2577522614799994,-0.0336724428299997,0.9917026724000012
1698907579047,-0.2559524224799994,-0.0345398175299997,0.9977047004000013
1698907579061,-0.2542842204799994,-0.0352441151299997,1.003992568400001
1698907579074,-0.2525278514799994,-0.0357671102299997,1.010819053400001
1698907579089,-0.2509236784799994,-0.0359040554299997,1.018195975400001
1698907579103,-0.2492406144799994,-0.0356716908299997,1.025984148400001
1698907579116,-0.2476391074799994,-0.0351013603299997,1.034100555400001
1698907579130,-0.2461243574799994,-0.0341675975299997,1.042643779400001
1698907579144,-0.2449450524799994,-0.0326493945299996,1.051407583400001
1698907579158,-0.2439493806799994,-0.0304962295299996,1.0602226494000009
1698907579172,-0.2434040295799994,-0.0282044335299996,1.0691702524000009
1698907579186,-0.2433609989799994,-0.0261511975299996,1.0781519184000008
1698907579200,-0.2437287747799994,-0.0241026545299996,1.0869366664000009
1698907579214,-0.2450090757799994,-0.0225341245299997,1.0957698934000009
1698907579228,-0.2467099917799994,-0.0210735285299996,1.1044965014000008
1698907579243,-0.2487250257799994,-0.0200543985299996,1.113192129400001
1698907579256,-0.2510358097799994,-0.0193166285299997,1.1216295614000007
1698907579270,-0.2538047897799994,-0.0187418390299997,1.1298296144000006
1698907579283,-0.2565994057799994,-0.0183796715299997,1.1376019134000006
1698907579297,-0.2599101567799994,-0.0181962184299997,1.1451208574000007
1698907579311,-0.2634505297799994,-0.0180632208299997,1.1522300384000006
1698907579326,-0.2674806247799994,-0.0178699956299996,1.1589701044000007
1698907579339,-0.2720460317799994,-0.0175300164299996,1.1653141744000006
1698907579353,-0.2771646867799994,-0.0167581102299997,1.1712723234000006
1698907579368,-0.2825873657799994,-0.0159650935299997,1.1768193774000006
1698907579380,-0.2883820837799993,-0.0153246174299997,1.1821589214000006
1698907579393,-0.2943580127799993,-0.0151967612299997,1.1872520534000006
1698907579408,-0.3005986937799993,-0.0158083852299997,1.1920732484000007
1698907579422,-0.3069194517799993,-0.0170443002299997,1.1965832254000008
1698907579435,-0.3133023077799993,-0.0183611662299997,1.2007358944000008
1698907579452,-0.3196087087799993,-0.0196172602299997,1.2043750244000009
1698907579464,-0.3259961967799993,-0.0205711387299997,1.2077456264000008
1698907579478,-0.3323982717799993,-0.0217489707299997,1.2107275714000008
1698907579491,-0.3386266337799993,-0.0229847717299997,1.2133368334000008
1698907579505,-0.3447741267799993,-0.0244121557299997,1.2155586484000007
1698907579521,-0.3508709757799994,-0.0261837417299997,1.2175930814000009
1698907579533,-0.3565216387799994,-0.0281167847299997,1.2192352534000006
1698907579548,-0.3614391557799993,-0.0299288107299997,1.2205222074000006
1698907579562,-0.3655823727799993,-0.0315923597299997,1.2215414214000009
1698907579575,-0.3689873587799993,-0.0332609337299997,1.2223876782000007
1698907579589,-0.3715988177799993,-0.0348017297299996,1.2229254491000008
1698907579602,-0.3737538687799993,-0.0358989827299996,1.2230654865000008
1698907579617,-0.3754174767799993,-0.0366144767299996,1.2228477029000009
1698907579630,-0.3764587077799993,-0.0373153138299996,1.2223682656000008
1698907579645,-0.3772210763799993,-0.0377432166299996,1.2214851750000009
1698907579658,-0.3777053814799993,-0.0384802772299996,1.220332259000001
1698907579672,-0.3779292884799993,-0.0397352382299996,1.218888916000001
1698907579686,-0.3778813102299993,-0.0413076432299996,1.217241371000001
1698907579700,-0.3779424370099993,-0.0426281262299996,1.215402955000001
1698907579714,-0.3779474309939993,-0.0436685902299996,1.213280115000001
1698907579727,-0.3777765627939993,-0.0444778483299996,1.210741516000001
1698907579741,-0.3774568448939993,-0.0456066693299996,1.207938434000001
1698907579756,-0.3772690873939993,-0.0465967346299996,1.205196075000001
1698907579771,-0.3768622908939993,-0.0471155905299996,1.202303185000001
1698907579782,-0.3761900970939993,-0.0473634826299996,1.199086893000001
1698907579796,-0.3754387761939993,-0.0471395438299996,1.1955693790000008
1698907579810,-0.3746640113939993,-0.0468030032299996,1.1918835860000008
1698907579827,-0.3740209410939993,-0.0462117142299996,1.1880393340000008
1698907579839,-0.3733323019939993,-0.0457857553299996,1.1839727740000008
1698907579856,-0.3725994695939993,-0.0456182692299996,1.1796529650000007
1698907579867,-0.3719871762939993,-0.0459618949299996,1.1751272450000008
1698907579881,-0.3713398379939993,-0.0464373557299996,1.1702970830000008
1698907579894,-0.3709947529939992,-0.0469650700299996,1.1652318700000008
1698907579908,-0.3706017087939992,-0.0478449117299996,1.160058451000001
1698907579923,-0.3702130389939992,-0.0483339001299996,1.154861512000001
1698907579936,-0.3695697346939992,-0.0486315362299996,1.149614796000001
1698907579951,-0.3685772563939992,-0.0485665635599996,1.144390003000001
1698907579964,-0.3673924773939992,-0.0484384641599996,1.139387729000001
1698907579978,-0.3656622043939992,-0.0481420170599996,1.134403773000001
1698907579992,-0.3637652343939992,-0.0482169112599996,1.1297672820000009
1698907580006,-0.3617163503939992,-0.0481832777999996,1.1251867780000009
1698907580019,-0.3594219763939992,-0.0482799650799996,1.120676698000001
1698907580033,-0.3572327883939992,-0.0483143114599996,1.116211405000001
1698907580048,-0.3547768303939992,-0.0482556945999996,1.111750652000001
1698907580062,-0.3524763043939992,-0.0477993753999996,1.1074952740000008
1698907580075,-0.3502147803939992,-0.0471901583999996,1.1035417320000007
1698907580091,-0.3477387863939992,-0.0469880894999996,1.0999708550000007
1698907580103,-0.3453035943939992,-0.0467136317999996,1.0967915760000009
1698907580116,-0.3429309163939992,-0.0461936435999996,1.0937607490000008
1698907580131,-0.3407956253939992,-0.0455321666999996,1.0909768170000007
1698907580146,-0.3389771963939992,-0.0447949009999996,1.0885059370000008
1698907580159,-0.3370136373939992,-0.0440744399999996,1.0860098980000008
1698907580173,-0.3350837253939993,-0.0433688727999996,1.0835266100000007
1698907580186,-0.3334813693939992,-0.0428547075999996,1.0812235890000008
1698907580199,-0.3317341373939992,-0.0424066465999996,1.0786845180000009
1698907580214,-0.3302674333939993,-0.0417424362999996,1.076040176000001
1698907580228,-0.3290956023939992,-0.0409186278999996,1.073373734000001
1698907580242,-0.3280194323939993,-0.0402951660999996,1.070803493000001
1698907580255,-0.3268612393939993,-0.0397644798999996,1.068200102000001
1698907580268,-0.3255913543939993,-0.0397210201799996,1.0658388600000008
1698907580283,-0.3241572143939993,-0.0398388073799996,1.0635095370000007
1698907580298,-0.3227012683939993,-0.0402319625799996,1.0613604770000007
1698907580311,-0.3211460803939993,-0.0406922792799996,1.0592711820000007
1698907580325,-0.3198311013939993,-0.0414262433799996,1.0572166340000009
1698907580338,-0.3186047753939993,-0.0423162478799996,1.055079957000001
1698907580352,-0.3174273253939993,-0.0436152838799996,1.0530519610000006
1698907580366,-0.3161873913939993,-0.0452282478799996,1.0511930040000006
1698907580381,-0.3150456233939993,-0.0473384208799996,1.0495971950000007
1698907580395,-0.3136303373939993,-0.0495811678799996,1.0479892790000007
1698907580410,-0.3125338793939993,-0.0519913368799996,1.0466273880000008
1698907580423,-0.3113622153939993,-0.0534817558799996,1.0451467620000008
1698907580436,-0.3109843628939993,-0.0541011554799996,1.0437304200000008
1698907580450,-0.3105594467939992,-0.0543085546799996,1.0423659510000007
1698907580465,-0.3103378591939992,-0.0538380848799996,1.0410423860000009
1698907580477,-0.3106771777939993,-0.0526754788799996,1.0401406375000006
1698907580493,-0.3110059261939993,-0.0512461598799996,1.0393350732000006
1698907580506,-0.3114496084939993,-0.0497103528799996,1.0386517023000006
1698907580520,-0.3122423305939993,-0.0480703848799996,1.0382371364000005
1698907580534,-0.3133975895939993,-0.0463654498799996,1.0380377311000004
1698907580547,-0.3150158315939993,-0.0448246998799996,1.0379799330500004
1698907580561,-0.3172453125939993,-0.0432034538799996,1.0377475641500005
1698907580574,-0.3201501635939993,-0.0418114038799996,1.0374348291500004
1698907580589,-0.3233983625939993,-0.0407636958799996,1.0370366038500003
1698907580603,-0.3272612585939993,-0.0403628880799996,1.0367142607500004
1698907580617,-0.3310881135939993,-0.0403557162559996,1.0362343814500004
1698907580631,-0.3351904725939993,-0.0408636826559996,1.0358682453500003
1698907580644,-0.3389265475939993,-0.0422870156559996,1.0355370465500002
1698907580658,-0.3425844425939993,-0.0437988196559996,1.0349631496500002
1698907580671,-0.3461243735939993,-0.0457114356559996,1.0342484525500002
1698907580686,-0.3493684905939993,-0.0481402186559996,1.03337716805
1698907580700,-0.3527162615939993,-0.0505283326559996,1.0323442450500002
1698907580713,-0.3552981435939993,-0.0528687496559996,1.0310591560500002
1698907580727,-0.3573281035939993,-0.0549274986559996,1.0297870680500003
1698907580741,-0.3588319975939993,-0.0569863256559996,1.0283551220500002
1698907580755,-0.3596294959939993,-0.0584191936559996,1.0267392540500002
1698907580769,-0.3600060641939993,-0.0596144496559996,1.0251225750500002
1698907580784,-0.3598057467939993,-0.0606210556559996,1.0236557730500002
1698907580797,-0.3591149360939993,-0.0612418986559996,1.0222003340500003
1698907580813,-0.3581784546939993,-0.0613651539559996,1.0209128440500004
1698907580826,-0.3567573136939992,-0.0610177950559996,1.0196649140500005
1698907580839,-0.3549688416939993,-0.0601901214559996,1.0184768630500003
1698907580852,-0.3529103806939992,-0.0590658084559996,1.0174145880500003
1698907580867,-0.3505992916939993,-0.0580996989559996,1.0164673522500005
1698907580882,-0.3482417116939992,-0.0569739179559996,1.0156496114500004
1698907580896,-0.3458387136939992,-0.0561495127559996,1.0149899976500003
1698907580909,-0.3436513146939993,-0.0553562519559996,1.0145510535500006
1698907580923,-0.3416893216939993,-0.0547434064559996,1.0141340576500006
1698907580936,-0.3396056626939993,-0.0544428928559996,1.0134655807500006
1698907580951,-0.3378205016939993,-0.0541952799559996,1.012459850750001
1698907580963,-0.3362798936939993,-0.0542035004489996,1.0113807197500009
1698907580977,-0.3350844046939993,-0.0545528389489996,1.0103709327500006
1698907580991,-0.3337159356939993,-0.0557107179489996,1.0096078236500006
1698907581005,-0.3320627506939993,-0.0570109439489996,1.0089104876500006
1698907581020,-0.3305718786939993,-0.0581521789489996,1.0082673005500005
1698907581034,-0.3288552236939993,-0.0592920939489996,1.0076479638500004
1698907581046,-0.3272877376939993,-0.0602259158489996,1.0072049407500003
1698907581060,-0.3257789826939993,-0.0608816904489996,1.0069219160500005
1698907581075,-0.3242914096939993,-0.0616223661489996,1.0068822275100002
1698907581091,-0.3231185406939993,-0.0621725467489996,1.0067879414300005
1698907581104,-0.3221033896939993,-0.0624257590489996,1.0067341665200005
1698907581118,-0.3217434370939993,-0.0625310372489996,1.0069384493200002
1698907581132,-0.3213939455939993,-0.0630265420489996,1.0074346027200003
1698907581145,-0.3212553361939993,-0.0641889790489996,1.0083408059200003
1698907581158,-0.3217422875939993,-0.0648074167489996,1.0097753309200004
1698907581172,-0.3225389303939993,-0.0652127109489996,1.0113662849200005
1698907581187,-0.3240101163939993,-0.0650999117489996,1.0132503699200004
1698907581200,-0.3261768853939993,-0.0646002807489996,1.0154319179200004
1698907581216,-0.3288374813939994,-0.0634671557489996,1.0179483689200004
1698907581228,-0.3317608633939993,-0.0622929787489996,1.0207163569200004
1698907581244,-0.3349898973939993,-0.0612265897489996,1.0237464339200004
1698907581257,-0.3386921593939994,-0.0605544428489996,1.0272104219200004
1698907581271,-0.3427448573939994,-0.0598403161489996,1.0308484259200004
1698907581284,-0.3470286723939994,-0.0591762379489996,1.0344403129200004
1698907581299,-0.3516763663939994,-0.0585651632489996,1.0380978289200005
1698907581312,-0.3564580373939994,-0.0583054347489996,1.0416773679200004
1698907581326,-0.3613039083939994,-0.0584874542489996,1.0451038809200004
1698907581340,-0.3662961283939994,-0.0590849526489996,1.0485291869200004
1698907581353,-0.3712995503939993,-0.0601687286489996,1.0520256829200003
1698907581367,-0.3761684063939993,-0.0614866896489996,1.0555342129200005
1698907581381,-0.3806581073939993,-0.0626654736489996,1.0591126249200002
1698907581395,-0.3849942743939993,-0.0638171316489996,1.0627652189200003
1698907581408,-0.3887151433939994,-0.0647924316489996,1.0662951829200005
1698907581421,-0.3918904313939993,-0.0656094754489996,1.0699143799200002
1698907581436,-0.3942814823939993,-0.0662702709489996,1.0734314209200002
1698907581451,-0.3959891433939994,-0.0666475115489996,1.0767662019200002
1698907581466,-0.3970781263939993,-0.0670923369489996,1.0800324419200005
1698907581477,-0.3975742309939993,-0.0673788494489996,1.0832820309200002
1698907581491,-0.3975669977609993,-0.0669572216489996,1.0862589259200002
1698907581505,-0.3973103076609993,-0.0660080736489996,1.0891830719200002
1698907581521,-0.3964024253609993,-0.0646077146489996,1.09199974292
1698907581534,-0.3951336773609993,-0.0632240946489996,1.0948860639200002
1698907581548,-0.3937312553609993,-0.0617750376489996,1.0979330139200003
1698907581562,-0.3921285953609993,-0.0604836656489996,1.1010056819200005
1698907581575,-0.3904850323609993,-0.0594230646489996,1.1041363959200003
1698907581589,-0.3883886713609993,-0.0582565886489996,1.1070541379200003
1698907581602,-0.3859341493609993,-0.0571600436489996,1.1097270279200002
1698907581617,-0.3835521483609993,-0.0560938136489996,1.11217074092
1698907581632,-0.3807621083609993,-0.0554883108489996,1.11422653592
1698907581645,-0.3781451373609993,-0.0550258608489996,1.11595390192
1698907581659,-0.3754366463609993,-0.0551463789489996,1.11731477492
1698907581672,-0.3727086803609993,-0.0555791088489996,1.11811622172
1698907581686,-0.3697963243609993,-0.0557851675489996,1.11842841132
1698907581700,-0.3668980803609993,-0.0558205844289996,1.118421708242
1698907581713,-0.3638778803609993,-0.0556666197289996,1.118160179342
1698907581726,-0.3607109723609993,-0.0552927463289996,1.117773759942
1698907581740,-0.3575035743609993,-0.0545900055289996,1.117287583042
1698907581756,-0.3539522053609993,-0.0539092927289996,1.116697323242
1698907581770,-0.3502838583609993,-0.0534497083289996,1.1160407721419998
1698907581785,-0.3463447193609993,-0.0529491849289996,1.1152835584419998
1698907581798,-0.3423345353609993,-0.0522651279289996,1.1143855097419997
1698907581812,-0.3380946753609993,-0.0517202780289996,1.1134416811419996
1698907581825,-0.3335692493609993,-0.0510126844289996,1.1123476011419997
1698907581839,-0.3291687413609993,-0.0506130139289996,1.1112703851419994
1698907581853,-0.3247575393609993,-0.0509608896289996,1.1101717941419993
1698907581867,-0.3203488673609993,-0.0518950905289996,1.109030524141999
1698907581881,-0.3158592493609993,-0.0532845225289996,1.1077263391419994
1698907581895,-0.3114854983609993,-0.0545416935289996,1.1065565981419994
1698907581908,-0.3075239063609993,-0.0553710275289996,1.1052985751419993
1698907581922,-0.3035991743609993,-0.0558715556289996,1.1038798771419993
1698907581936,-0.2998766133609993,-0.0559069902489996,1.1023365351419994
1698907581951,-0.2965351723609993,-0.0552239117489996,1.1005281691419997
1698907581964,-0.2932708023609993,-0.0544569702489996,1.0984353041419994
1698907581977,-0.2903538833609993,-0.0534973643489996,1.0959349441419994
1698907581991,-0.2877511813609993,-0.0524343723489996,1.0930983031419994
1698907582006,-0.2856840413609993,-0.0513534963489996,1.0899338241419994
1698907582021,-0.2840862603609992,-0.0498530923489996,1.086108555141999
1698907582033,-0.2829364393609992,-0.0475192443489996,1.081467704141999
1698907582049,-0.2821856529609993,-0.0450901233489996,1.0760743231419994
1698907582063,-0.2819335911609993,-0.0429907343489996,1.0698556251419993
1698907582076,-0.2817791203609993,-0.0411862193489996,1.0625759711419993
1698907582090,-0.2818129562409993,-0.0402394999489996,1.0541685821419993
1698907582105,-0.2820798057409993,-0.0402762346989996,1.0443844851419992
1698907582118,-0.2822414786409993,-0.0412723869989996,1.0333106351419992
1698907582131,-0.2821167466409993,-0.0431361239989996,1.0209415551419991
1698907582144,-0.2815392833409993,-0.0453910579989996,1.0069993051419992
1698907582159,-0.2805605299409993,-0.0481078529989996,0.9916822051419992
1698907582173,-0.2789320929409993,-0.0507841789989996,0.9750392651419992
1698907582186,-0.2768522949409993,-0.0533539279989996,0.9571525151419992
1698907582201,-0.2742054629409993,-0.0557332329989996,0.9379521151419992
1698907582215,-0.2710958859409993,-0.0578832789989996,0.9175470751419992
1698907582228,-0.2678441019409994,-0.0598475339989996,0.8960533451419993
1698907582242,-0.2640834719409994,-0.0618904229989996,0.8734347951419993
1698907582256,-0.2598822179409994,-0.0637189019989996,0.8495641551419992
1698907582269,-0.2558466809409994,-0.0654680849989996,0.8246753651419992
1698907582284,-0.2514874049409994,-0.0673138869989996,0.7983214151419993
1698907582298,-0.2469092379409994,-0.0692426329989996,0.7705967451419993
1698907582311,-0.2423948159409994,-0.0713296369989996,0.7416412551419993
1698907582325,-0.2375429399409994,-0.0738465299989996,0.7112141351419993
1698907582339,-0.2327246179409994,-0.0764621269989996,0.6793917551419992
1698907582353,-0.2279437389409994,-0.0789284869989996,0.6458118151419993
1698907582366,-0.2230790279409994,-0.0814937419989996,0.6103702751419993
1698907582382,-0.2182235919409994,-0.0839965529989996,0.5728850451419992
1698907582395,-0.2134443709409994,-0.0866712639989996,0.5334023851419992
1698907582407,-0.2084652239409994,-0.0892771309989996,0.4916027151419992
1698907582422,-0.2036750279409994,-0.0920232999989996,0.4474260151419992
1698907582435,-0.1988652589409994,-0.0952115109989996,0.4005734751419992
1698907582451,-0.1940279249409994,-0.0988940879989996,0.3510733251419992
1698907582465,-0.1893983759409994,-0.1031043449989996,0.2990295351419992
1698907582479,-0.1847951989409994,-0.1075995349989996,0.2441665051419992
1698907582493,-0.1800377629409994,-0.1119028539989996,0.1863352951419992
1698907582507,-0.1756095829409994,-0.1162130019989996,0.1257266051419992
1698907582520,-0.1708971989409994,-0.1206086009989996,0.0624615351419992
1698907582534,-0.1658998429409994,-0.1253283669989996,-0.0035263148580007
1698907582547,-0.1605861669409994,-0.1304097709989997,-0.0720421048580007
1698907582561,-0.1550216099409994,-0.1353843479989997,-0.1432212148580008
1698907582575,-0.1493699699409994,-0.1398182769989997,-0.2171524648580008
1698907582590,-0.1436582099409994,-0.1439180679989997,-0.2936511848580008
1698907582603,-0.1378156549409994,-0.1477938889989997,-0.3727032348580008
1698907582617,-0.1320641419409994,-0.1516888449989997,-0.4540839048580007
1698907582631,-0.1262648369409994,-0.1559390399989997,-0.5378958648580008
1698907582646,-0.1205485279409994,-0.1602396319989997,-0.6241414348580008
1698907582659,-0.1148867419409994,-0.1641652749989997,-0.7124204748580008
1698907582671,-0.1092936619409994,-0.1678132659989997,-0.8027887448580008
1698907582685,-0.1034462789409994,-0.1712820299989997,-0.8952418448580007
1698907582700,-0.0973910689409994,-0.1741841249989997,-0.9898142148580008
1698907582714,-0.0917113609409994,-0.1763849619989997,-1.0858527548580006
1698907582729,-0.0858438649409994,-0.1780556649989997,-1.1834150648580006
1698907582741,-0.0801323579409993,-0.1792524489989997,-1.282283304858001
1698907582756,-0.0747054589409993,-0.1802560289989997,-1.3823083048580007
1698907582769,-0.0698762009409993,-0.1809710490989997,-1.4830347048580008
1698907582784,-0.0659006419409993,-0.1811963949989997,-1.5843187048580007
1698907582797,-0.0630895379409993,-0.1810831374989997,-1.6855702048580008
1698907582811,-0.0615669559409993,-0.1810783270429997,-1.7863069048580007
1698907582826,-0.0614507045409993,-0.1811274509629997,-1.8861970148580007
1698907582839,-0.0626812275409993,-0.1819614126629997,-1.9849558748580007
1698907582852,-0.0653215005409993,-0.1834112696629997,-2.0825938548580005
1698907582866,-0.0689723375409993,-0.1862377866629997,-2.1789635848580007
1698907582881,-0.0740789955409993,-0.1904167246629997,-2.274179344858001
1698907582895,-0.0807861905409993,-0.1967034776629997,-2.3681306948580008
1698907582911,-0.0891266165409993,-0.2048525836629997,-2.460911324858001
1698907582922,-0.0995117065409993,-0.2145695346629997,-2.5524255848580006
1698907582935,-0.1119602465409993,-0.2254538446629997,-2.642609454858001
1698907582949,-0.1266413165409994,-0.2372908946629997,-2.731181744858001
1698907582964,-0.1442150965409994,-0.2487454846629997,-2.817797714858001
1698907582978,-0.1644536665409994,-0.2598361046629997,-2.9020610248580008
1698907582998,-0.1870704365409994,-0.2706110146629997,-2.983862874858001
1698907583005,-0.2122476765409994,-0.2818325146629997,-3.062859594858001
1698907583018,-0.2398898465409994,-0.2936450246629997,-3.139390694858001
1698907583033,-0.2701714565409994,-0.3061962946629997,-3.213431404858001
1698907583046,-0.3031310265409994,-0.3183027846629997,-3.285482904858001
1698907583062,-0.3390388865409994,-0.3291420546629998,-3.356057414858001
1698907583075,-0.3785630965409994,-0.3383277316629998,-3.425538094858001
1698907583089,-0.4213639965409994,-0.3466517266629998,-3.494381574858001
1698907583102,-0.4674717065409994,-0.3541919606629998,-3.562907174858001
1698907583116,-0.5176981265409994,-0.3606210156629998,-3.631368984858001
1698907583131,-0.5718361665409994,-0.3658449286629998,-3.700358434858001
1698907583144,-0.6304346365409994,-0.3696674236629998,-3.770205184858001
1698907583158,-0.6942958865409994,-0.3704569612629998,-3.841717984858001
1698907583170,-0.7638872165409993,-0.3678129402629998,-3.914975254858001
1698907583185,-0.8391396365409993,-0.3635816762629998,-3.989707504858001
1698907583199,-0.9199952265409992,-0.3587228612629998,-4.066167864858
1698907583214,-1.0066418765409992,-0.3521087412629998,-4.144761764858
1698907583228,-1.0997796965409992,-0.3431531392629998,-4.226192304858
1698907583242,-1.199184956540999,-0.3321854592629998,-4.311055114858
1698907583256,-1.304961056540999,-0.3202191692629998,-4.3995696348580005
1698907583269,-1.4173664565409991,-0.3077869692629998,-4.492528864858
1698907583282,-1.536648956540999,-0.2956952292629998,-4.590624604858
1698907583297,-1.6627887565409991,-0.2850870892629998,-4.6943276048580005
1698907583313,-1.7961584565409991,-0.2765353262629998,-4.804455604858001
1698907583325,-1.936270256540999,-0.2713422222629998,-4.920915804858001
1698907583339,-2.083096656540999,-0.2707053112629998,-5.0437912048580005
1698907583353,-2.236556756540999,-0.2752120292629998,-5.173087604858001
1698907583366,-2.396444556540999,-0.2841501012629998,-5.309002504858001
1698907583380,-2.562898256540999,-0.2971964712629998,-5.451258604858001
1698907583394,-2.735857756540999,-0.3137207612629998,-5.599906104858001
1698907583406,-2.914570856540999,-0.3338157912629998,-5.753931204858001
1698907583423,-3.099448656540999,-0.3573679712629998,-5.9132135048580015
1698907583435,-3.290567756540999,-0.3830159012629998,-6.077203704858001
1698907583448,-3.487581056540999,-0.4097877312629998,-6.245735504858001
1698907583463,-3.690965456540999,-0.4376539012629998,-6.4184286048580015
1698907583477,-3.900456856540999,-0.4670651712629998,-6.595169404858002
1698907583491,-4.116565256541,-0.4970009212629998,-6.775680404858002
1698907583505,-4.339535756540999,-0.5271852012629997,-6.959938804858002
1698907583519,-4.569966156541,-0.5567729912629997,-7.147503804858002
1698907583532,-4.808822456541,-0.5854486412629998,-7.338158904858002
1698907583548,-5.056440056541,-0.6133455812629998,-7.531697404858002
1698907583561,-5.312940156541,-0.6398232112629998,-7.728155204858002
1698907583573,-5.578961556541,-0.6650742312629998,-7.9274535048580015
1698907583587,-5.855196056541,-0.6891920712629998,-8.129618304858
1698907583602,-6.141381956541,-0.7127996112629997,-8.334401004858002
1698907583617,-6.438314056541,-0.7352913412629998,-8.542248804858001
1698907583631,-6.745841956541001,-0.7566321412629998,-8.753468304858002
1698907583645,-7.063495056541001,-0.7766050912629998,-8.968252104858001
1698907583659,-7.391545956541001,-0.7950555512629998,-9.186683704858002
1698907583672,-7.730109956541001,-0.8121676412629998,-9.408732704858002
1698907583685,-8.078399156541002,-0.8284195112629997,-9.634120804858002
1698907583699,-8.437006856541002,-0.8439699312629997,-9.862610404858
1698907583713,-8.805797356541001,-0.8584676512629997,-10.094219904858
1698907583726,-9.184645456541002,-0.8721341312629998,-10.328953904858
1698907583741,-9.573394356541002,-0.8857406812629998,-10.566966104858
1698907583755,-9.971506856541,-0.9012536112629996,-10.807467504858
1698907583769,-10.378263356541002,-0.9195478912629996,-11.050166804858
1698907583781,-10.793668556541002,-0.9368455212629996,-11.296011204858
1698907583796,-11.220394056541002,-0.9395534812629996,-11.548463904857998
1698907583808,-11.663628556541004,-0.9030415212629996,-11.812796804857998
1698907583824,-12.120242256541005,-0.8357465812629996,-12.085393804857995
1698907583837,-12.585830556541003,-0.7586820712629996,-12.364975304857998
1698907583851,-13.055197956541004,-0.6852018512629996,-12.648917304857996
1698907583866,-13.526588856541002,-0.6159015312629996,-12.937849104857998
1698907583879,-14.000814156541002,-0.5435724712629997,-13.231613504857998
1698907583893,-14.476561456541004,-0.4651330012629996,-13.529010104858
1698907583907,-14.950352056541002,-0.3852696612629996,-13.828114504857998
1698907583922,-15.419040056541002,-0.3089664912629997,-14.127500304857998
1698907583937,-15.881270056541002,-0.2397570212629997,-14.426220704857998
1698907583951,-16.337866856541,-0.1766218712629997,-14.724199004858
1698907583964,-16.790005756541003,-0.1166428512629997,-15.021969004858
1698907583977,-17.237390756541004,-0.0601933112629997,-15.318750404858
1698907583990,-17.677660856541003,-0.0116734012629996,-15.613488204858
1698907584003,-18.108916156541003,0.0242799087370003,-15.905224204858
1698907584017,-18.530059156541004,0.0447807387370003,-16.193740404857998
1698907584033,-18.940722456541003,0.0497249277370003,-16.479549704857998
1698907584047,-19.341831356541004,0.0432689377370003,-16.764019704857997
1698907584060,-19.734227256541004,0.0299174477370003,-17.048358304858
1698907584075,-20.118467156541005,0.0133321277370003,-17.333227804857998
1698907584090,-20.494341756541004,-0.0042922022629996,-17.618160704858
1698907584102,-20.861668356541003,-0.0215824622629996,-17.902590504858
1698907584116,-21.220025756541,-0.0372217122629996,-18.185650004858
1698907584130,-21.568648456541,-0.0494140722629996,-18.466004504858
1698907584142,-21.907916856541004,-0.0576802492629996,-18.742777304858
1698907584157,-22.238320556541005,-0.0609267802629996,-19.016013104858
1698907584171,-22.560328256541005,-0.0560188552629996,-19.286395304858
1698907584184,-22.875555756541004,-0.0415271052629996,-19.554861204858
1698907584199,-23.18480355654101,-0.0205135752629996,-19.821469004858
1698907584213,-23.488407456541005,0.0030855447370003,-20.086580804858
1698907584227,-23.787301656541004,0.0261730747370003,-20.351262404858
1698907584240,-24.082290256541004,0.0460625647370003,-20.615896104858
1698907584254,-24.373907656541004,0.0598777147370003,-20.881355304858
1698907584268,-24.662660556541,0.0651157517370003,-21.148595804858
1698907584281,-24.949442556541,0.0629354507370003,-21.418346004858
1698907584295,-25.234893756541,0.0541041557370003,-21.691796604858
1698907584310,-25.519414156541004,0.0403242757370003,-21.969208704858
1698907584325,-25.802589956541,0.0219669557370003,-22.251033004858
1698907584338,-26.083331556541,-0.0009095942629996,-22.537511104858
1698907584354,-26.361529956541,-0.0282866042629996,-22.829211604858
1698907584367,-26.636848656541,-0.0590240742629996,-23.126807604858
1698907584380,-26.909914956541,-0.0927288242629996,-23.430086804858
1698907584394,-27.180560156541,-0.1298702542629997,-23.739407604857995
1698907584408,-27.448909856541004,-0.1703097942629997,-24.055483004858
1698907584422,-27.715833056541005,-0.2126340942629997,-24.378412504857994
1698907584434,-27.98157035654101,-0.2555448142629997,-24.708101504858
1698907584448,-28.246038156541005,-0.2988852742629997,-25.045274004858
1698907584462,-28.509585856541005,-0.3431785542629997,-25.390628704858
1698907584476,-28.772721056541005,-0.3874633642629997,-25.744915104857995
1698907584490,-29.036058756541006,-0.4318680242629997,-26.108515404858
1698907584505,-29.300150656541007,-0.4768411842629997,-26.481524904857995
1698907584518,-29.56466955654101,-0.5232258442629997,-26.864241404858
1698907584532,-29.829403456541005,-0.5701261442629997,-27.256627704858
1698907584546,-30.094041356541005,-0.6169881442629996,-27.659390604858
1698907584561,-30.35876715654101,-0.6642168842629996,-28.071883404857992
1698907584575,-30.623415756541007,-0.7119169442629997,-28.494528604858
1698907584589,-30.888031756541007,-0.7588638242629997,-28.927338204858
1698907584602,-31.152447356541007,-0.8044530442629997,-29.37025160485799
1698907584615,-31.416489356541007,-0.8487964942629996,-29.822671104857992
1698907584629,-31.680470256541007,-0.8931337642629996,-30.283813004858
1698907584642,-31.94447845654101,-0.9376623142629996,-30.753670504858
1698907584657,-32.20918735654101,-0.9820908842629996,-31.231759904857995
1698907584672,-32.47512355654101,-1.0263814942629996,-31.717823904858
1698907584685,-32.74231145654101,-1.0716652442629997,-32.210682704857994
1698907584700,-33.01065375654101,-1.1191406342629997,-32.709340904858
1698907584714,-33.280659856541014,-1.1675435142629995,-33.213786104857995
1698907584727,-33.553789056541014,-1.2089687242629998,-33.724768904858
1698907584740,-33.83430195654101,-1.222508154263,-34.246438504858
1698907584755,-34.12469425654101,-1.1917283842629998,-34.781346204858
1698907584768,-34.42497755654101,-1.121468334263,-35.328185204857995
1698907584783,-34.73086275654101,-1.0351564542629998,-35.879761404857994
1698907584796,-35.039249956541006,-0.9516918042629998,-36.430663604858
1698907584810,-35.34914535654101,-0.8741298742629998,-36.978932904858
1698907584825,-35.65953805654101,-0.7998938242629998,-37.522914004858
1698907584838,-35.96947415654101,-0.7304985542629998,-38.060699804858
1698907584851,-36.27808805654101,-0.6707989342629999,-38.58914340485801
1698907584864,-36.58545155654101,-0.6235598242629998,-39.10623740485801
1698907584880,-36.89216025654101,-0.5870435442629999,-39.611923604858006
1698907584896,-37.19990325654101,-0.5576952642629999,-40.107905604858
1698907584909,-37.509762156541015,-0.5330201642629999,-40.59437670485801
1698907584922,-37.82172065654102,-0.5133322642629999,-41.07071800485801
1698907584935,-38.13469375654102,-0.5005772542629999,-41.53615110485801
1698907584949,-38.44721085654102,-0.4970858312629999,-41.988818204858006
1698907584963,-38.75731975654102,-0.503300567263,-42.42881680485801
1698907584977,-39.06297885654102,-0.517820967263,-42.85496850485801
1698907584992,-39.36295265654102,-0.535798607263,-43.267703404858
1698907585005,-39.65563125654102,-0.552111587263,-43.66628830485801
1698907585017,-39.94195625654102,-0.563405137263,-44.05351580485801
1698907585030,-40.22025265654102,-0.566148852263,-44.42792830485801
1698907585045,-40.49032045654102,-0.558377916263,-44.79123180485801
1698907585060,-40.75203715654102,-0.5380009662630001,-45.14456880485801
1698907585076,-41.006281956541024,-0.508193036263,-45.489775304858014
1698907585088,-41.25338195654103,-0.4735521462630001,-45.82772200485802
1698907585101,-41.49483685654103,-0.439511506263,-46.16035380485802
1698907585114,-41.73112855654103,-0.409292986263,-46.488916904858016
1698907585128,-41.96332705654103,-0.384106506263,-46.81455940485802
1698907585142,-42.19297505654103,-0.364295216263,-47.13844600485802
1698907585158,-42.42190575654103,-0.350447356263,-47.461353904858015
1698907585171,-42.65116995654103,-0.342728013263,-47.78396070485802
1698907585184,-42.88120155654103,-0.341913057563,-48.106659404858014
1698907585199,-43.11302855654103,-0.3468749575630001,-48.430176804858014
1698907585213,-43.34765525654103,-0.3545994595630001,-48.75475020485801
1698907585226,-43.58532485654103,-0.3641906565630001,-49.08017240485801
1698907585239,-43.82547285654103,-0.3770166665630001,-49.40577050485801
1698907585253,-44.06791365654102,-0.3935069465630001,-49.731274504858014
1698907585267,-44.31293735654102,-0.4134074665630001,-50.05610810485801
1698907585282,-44.56073565654102,-0.435743026563,-50.380717804858016
1698907585297,-44.81171205654102,-0.460813426563,-50.70503500485802
1698907585312,-45.06560835654102,-0.4878855665630001,-51.02916220485802
1698907585324,-45.32258255654102,-0.5161987365630001,-51.353471004858015
1698907585338,-45.58328235654102,-0.5443709465630001,-51.677845804858016
1698907585352,-45.84859965654102,-0.5723132765630001,-52.001991204858015
1698907585365,-46.118814356541016,-0.6000121365630001,-52.32635410485801
1698907585377,-46.394641956541015,-0.6277977265630001,-52.65123780485801
1698907585393,-46.67741475654101,-0.6548110265630002,-52.97760320485801
1698907585406,-46.96767405654101,-0.6808149165630002,-53.305776404858015
1698907585421,-47.26572725654101,-0.7074549265630002,-53.635986304858015
1698907585435,-47.57188355654101,-0.7359971265630002,-53.968703604858014
1698907585448,-47.88576175654101,-0.7657398865630002,-54.30456860485801
1698907585461,-48.20736525654101,-0.7963147965630002,-54.64393160485801
1698907585477,-48.53695815654101,-0.8277475365630002,-54.98676750485801
1698907585489,-48.87468765654101,-0.8595702965630001,-55.33336790485801
1698907585502,-49.220278856541015,-0.8914272765630001,-55.68363050485801
1698907585518,-49.57418435654102,-0.9231019965630002,-56.037856504858006
1698907585532,-49.936220556541016,-0.9552299065630002,-56.396203304858005
1698907585546,-50.305729356541015,-0.9873649265630002,-56.758643204858
1698907585560,-50.68285765654102,-1.0184360965630002,-57.125155504858
1698907585573,-51.067346356541016,-1.047646606563,-57.495905004858
1698907585587,-51.459004956541015,-1.075289636563,-57.870829904858006
1698907585601,-51.85689565654101,-1.101841326563,-58.249987904858
1698907585615,-52.26023815654101,-1.129232956563,-58.633192904858
1698907585630,-52.667978556541016,-1.157051526563,-59.020304304858
1698907585643,-53.081865356541016,-1.177781816563,-59.413281104858
1698907585657,-53.50679825654102,-1.1693644225629998,-59.817759904858
1698907585671,-53.94762685654102,-1.1126494725629998,-60.235467304858
1698907585685,-54.400769756541024,-1.0251281125629998,-60.663171204858
1698907585699,-54.86136985654103,-0.926329152563,-61.097411504858
1698907585713,-55.32559905654102,-0.8307551125629998,-61.534078804858
1698907585726,-55.79355335654103,-0.7426591325629999,-61.972272804858
1698907585739,-56.26524595654102,-0.6572177325629999,-62.409713904858
1698907585754,-56.739577156541024,-0.5731911725629999,-62.844460604858
1698907585768,-57.21201155654102,-0.4949198225629999,-63.273733404858
1698907585781,-57.677330056541024,-0.4264412725629999,-63.697733704858
1698907585795,-58.13219345654103,-0.3692599325629999,-64.118060404858
1698907585809,-58.57619205654103,-0.3190007725629999,-64.536547604858
1698907585824,-59.00968565654102,-0.269305102563,-64.954261204858
1698907585838,-59.43195645654102,-0.221183622563,-65.370041804858
1698907585850,-59.84161215654103,-0.181102302563,-65.78155450485801
1698907585864,-60.23722475654103,-0.154656252563,-66.18682760485801
1698907585878,-60.61886445654103,-0.142363572563,-66.58521690485802
1698907585892,-60.986177056541024,-0.140631216563,-66.97676110485801
1698907585907,-61.340858756541024,-0.144602763563,-67.36196030485802
1698907585922,-61.68277265654103,-0.149687686563,-67.74129150485801
1698907585934,-62.01297185654103,-0.153359287563,-68.11402920485801
1698907585948,-62.33149795654103,-0.152533216063,-68.47943110485801
1698907585962,-62.63828885654103,-0.144262688063,-68.83665770485801
1698907585978,-62.93401355654103,-0.127451478063,-69.18584160485801
1698907585992,-63.21911995654103,-0.101886198063,-69.52795960485801
1698907586005,-63.49518715654103,-0.068953068063,-69.865096904858
1698907586019,-63.76311885654103,-0.0301577380629999,-70.19874570485801
1698907586032,-64.02393155654103,0.012243561937,-70.53082490485801
1698907586048,-64.27938055654103,0.055641521937,-70.863214604858
1698907586060,-64.53082085654103,0.097087821937,-71.197671704858
1698907586073,-64.77922055654102,0.134696351937,-71.53580570485799
1698907586087,-65.02535935654102,0.167534901937,-71.87920670485799
1698907586101,-65.27073585654102,0.195694081937,-72.229587804858
1698907586117,-65.51571045654103,0.217881121937,-72.588586904858
1698907586131,-65.76116225654103,0.2314281019369999,-72.956876204858
1698907586143,-66.00679795654102,0.2346151109369999,-73.33405010485801
1698907586158,-66.25262005654102,0.2275610629369999,-73.719509404858
1698907586171,-66.49876585654101,0.2116970729369999,-74.11310580485801
1698907586186,-66.74560795654101,0.1882117229369999,-74.514333004858
1698907586201,-66.99312945654101,0.156597582937,-74.922395204858
1698907586213,-67.24059085654102,0.1170767629369999,-75.33696890485801
1698907586226,-67.48786815654101,0.071264472937,-75.75780410485801
1698907586241,-67.73436835654101,0.0210650429369999,-76.18430080485801
1698907586255,-67.98021975654102,-0.032642667063,-76.61603630485801
1698907586268,-68.22546005654102,-0.089866057063,-77.05189070485801
1698907586284,-68.47015255654102,-0.151083977063,-77.49110940485801
1698907586296,-68.71487085654103,-0.214058847063,-77.934249004858
1698907586308,-68.96002785654103,-0.2768366970629999,-78.381841704858
1698907586322,-69.20544695654104,-0.3376530870629999,-78.83474160485801
1698907586337,-69.45067785654103,-0.396475237063,-79.29375090485802
1698907586352,-69.69544525654103,-0.452957787063,-79.75930920485801
1698907586367,-69.93929285654103,-0.506391357063,-80.23176380485802
1698907586379,-70.18211895654103,-0.557121377063,-80.71064550485802
1698907586393,-70.42414685654103,-0.605865567063,-81.19549860485802
1698907586407,-70.66494745654103,-0.652769587063,-81.68629130485802
1698907586422,-70.90509995654102,-0.696940177063,-82.18341730485801
1698907586435,-71.14462625654102,-0.7381462570630001,-82.68659050485802
1698907586446,-71.38320435654101,-0.7774959270630001,-83.19607230485802
1698907586461,-71.62057055654101,-0.8171122270630001,-83.71123010485802
1698907586477,-71.85684165654101,-0.8571779770630001,-84.23186070485802
1698907586490,-72.09159385654101,-0.8976601370630002,-84.75717900485802
1698907586504,-72.32481915654101,-0.9385945470630002,-85.28619810485802
1698907586518,-72.557986856541,-0.9759704270630002,-85.81911960485802
1698907586531,-72.79342505654101,-0.9995478070630002,-86.35735260485802
1698907586545,-73.03580705654102,-0.9898428400630002,-86.90541170485803
1698907586558,-73.28810455654101,-0.9342875600630002,-87.46572660485802
1698907586573,-73.54668065654101,-0.8474801300630002,-88.03513590485802
1698907586588,-73.80690015654102,-0.7498647400630002,-88.60883820485802
1698907586603,-74.06611805654101,-0.6496714400630001,-89.18368420485801
1698907586615,-74.32404455654101,-0.5487147400630001,-89.757579204858
1698907586628,-74.58037645654102,-0.4492046800630001,-90.327752604858
1698907586642,-74.83482445654101,-0.3555323100630001,-90.891881404858
1698907586656,-75.08687695654102,-0.2727348000630001,-91.44707390485802
1698907586670,-75.33544695654102,-0.2035074400630001,-91.99279600485802
1698907586687,-75.58164795654102,-0.1448153700630001,-92.52948720485804
1698907586699,-75.82720505654102,-0.0927562900630001,-93.05806300485804
1698907586713,-76.07292015654102,-0.0464793300630001,-93.57793480485805
1698907586727,-76.31832195654101,-0.0096872500630001,-94.08654950485804
1698907586740,-76.56203305654101,0.0141185099369998,-94.58291220485803
1698907586754,-76.80340005654101,0.0239960989369999,-95.06552160485803
1698907586768,-77.04182805654101,0.0225721589369999,-95.53292070485804
1698907586783,-77.277255356541,0.0169243059369999,-95.98593590485802
1698907586796,-77.50884955654101,0.0122354989369999,-96.42318140485804
1698907586811,-77.73609735654101,0.0090022599369999,-96.84569310485804
1698907586824,-77.95786555654101,0.0077627089369999,-97.25260930485804
1698907586837,-78.174254256541,0.0111808859369999,-97.64580420485802
1698907586851,-78.38631285654101,0.0224699459369999,-98.02640010485804
1698907586866,-78.594312656541,0.0422814659369999,-98.39486220485804
1698907586879,-78.79819035654101,0.0662064059369998,-98.75221650485804
1698907586893,-78.99816325654102,0.0905795359369998,-99.09905400485805
1698907586907,-79.19476615654102,0.1125209259369998,-99.43659280485804
1698907586921,-79.38881075654102,0.1308320959369999,-99.76603050485804
1698907586936,-79.58163375654102,0.1452137359369999,-100.08860870485805
1698907586948,-79.77391055654103,0.1552913259369999,-100.40515060485804
1698907586962,-79.96619175654102,0.1609065409369999,-100.71626460485804
1698907586975,-80.15865885654102,0.1612062241369999,-101.02196040485804
1698907586989,-80.35118685654102,0.1564300711369999,-101.32248190485804
1698907587004,-80.54386995654102,0.1478865051369999,-101.61865060485805
1698907587018,-80.73681975654101,0.1359029651369999,-101.91034810485804
1698907587033,-80.93021805654101,0.1221719751369999,-102.19775890485803
1698907587047,-81.12435525654101,0.1070071551369999,-102.48107890485804
1698907587062,-81.31930055654101,0.0913578351369999,-102.76076740485804
1698907587073,-81.515565056541,0.0752476651369999,-103.03682910485804
1698907587088,-81.713125256541,0.0581113151369999,-103.30913880485804
1698907587102,-81.912849856541,0.0401567251369999,-103.57769110485803
1698907587117,-82.115393356541,0.0207314551369999,-103.84261150485804
1698907587131,-82.32180575654101,-4.43248630001003e-05,-104.10406160485805
1698907587143,-82.53202995654101,-0.0220244548630001,-104.36252520485804
1698907587158,-82.746553256541,-0.045329184863,-104.61772220485804
1698907587170,-82.964733356541,-0.0706438748630001,-104.86967040485804
1698907587186,-83.186951856541,-0.097493254863,-105.11849850485802
1698907587200,-83.412834956541,-0.125064714863,-105.36471390485802
1698907587214,-83.641948456541,-0.1523195948630001,-105.60889670485804
1698907587228,-83.874660856541,-0.1782816748630001,-105.85137310485804
1698907587241,-84.11108925654099,-0.2008493548630001,-106.09304380485804
1698907587256,-84.35141095654099,-0.2190915248630001,-106.33492740485802
1698907587269,-84.59603845654098,-0.2341149848630001,-106.57716300485802
1698907587281,-84.84496355654097,-0.2470740248630001,-106.81967960485802
1698907587295,-85.09842955654098,-0.2587192348630001,-107.06273110485805
1698907587311,-85.35668975654097,-0.2688520248630001,-107.30672820485805
1698907587325,-85.61974685654097,-0.2778580208630001,-107.55221240485804
1698907587338,-85.88740015654098,-0.2865326238630001,-107.79916580485803
1698907587352,-86.15951755654098,-0.2950100858630001,-108.04757790485804
1698907587364,-86.43619905654097,-0.3037097578630001,-108.29772500485804
1698907587379,-86.71763235654097,-0.3134148328630001,-108.54928490485804
1698907587393,-87.00353415654098,-0.3247969528630001,-108.80306410485804
1698907587407,-87.29386625654098,-0.3374583228630001,-109.05902380485804
1698907587421,-87.58848585654098,-0.3514809228630001,-109.31721160485804
1698907587434,-87.88720235654098,-0.3663733528630001,-109.57764860485804
1698907587449,-88.18969345654098,-0.3821998828630001,-109.84055250485804
1698907587463,-88.49519985654098,-0.4002567328630001,-110.10537490485804
1698907587475,-88.80296705654098,-0.4224729028630001,-110.37156010485803
1698907587491,-89.11298695654098,-0.4472435328630001,-110.63875510485803
1698907587505,-89.42569635654098,-0.4678234328630001,-110.90786290485804
1698907587519,-89.74552855654098,-0.4641761198630001,-111.18333230485804
1698907587532,-90.07608985654096,-0.4147297098630001,-111.46741470485804
1698907587546,-90.41507905654096,-0.3278847098630001,-111.75701320485804
1698907587560,-90.75855965654098,-0.2250730098630001,-112.04893790485804
1698907587572,-91.102726556541,-0.1255510598630001,-112.33959770485804
1698907587587,-91.447656556541,-0.0323371598630001,-112.62896170485804
1698907587601,-91.794394456541,0.0600462601369998,-112.91530400485804
1698907587616,-92.14288185654098,0.1526873801369999,-113.19780980485804
1698907587630,-92.48897745654098,0.2411268001369998,-113.47580070485805
1698907587645,-92.82920965654098,0.3204607301369999,-113.74961450485804
1698907587659,-93.16268575654098,0.3886535001369999,-114.02031710485804
1698907587672,-93.491120156541,0.4492694901369999,-114.28915330485805
1698907587685,-93.816258956541,0.5046211001369999,-114.55631520485804
1698907587699,-94.137673756541,0.5539854001369999,-114.82119750485803
1698907587713,-94.454361956541,0.595260130137,-115.08336880485804
1698907587726,-94.765531156541,0.6272231101369999,-115.34240840485803
1698907587741,-95.07209205654098,0.652063280137,-115.59826920485804
1698907587755,-95.37404265654098,0.6712682201369999,-115.85047660485804
1698907587769,-95.67128205654096,0.6859508401369999,-116.09875980485803
1698907587782,-95.96288725654098,0.6961694801369999,-116.34305030485804
1698907587797,-96.24719925654098,0.7015768821369999,-116.58303260485803
1698907587810,-96.52348265654098,0.7035427681369999,-116.81925800485804
1698907587825,-96.79066615654098,0.7028989788369999,-117.05147990485804
1698907587838,-97.04863525654098,0.700328307837,-117.27992560485804
1698907587852,-97.29700315654098,0.6959617358369999,-117.50466520485804
1698907587867,-97.53496705654098,0.690233838837,-117.72570660485805
1698907587879,-97.763022856541,0.683968129837,-117.94343050485804
1698907587895,-97.981398656541,0.677818871837,-118.15810210485805
1698907587906,-98.189679056541,0.671978173837,-118.36990450485804
1698907587922,-98.388640356541,0.666228018837,-118.57927290485804
1698907587936,-98.57833185654098,0.660581130837,-118.78605120485804
1698907587951,-98.759846856541,0.655637870837,-118.99005130485804
1698907587964,-98.934334056541,0.651287567837,-119.19144330485804
1698907587978,-99.101846056541,0.647170807837,-119.38968070485804
1698907587992,-99.262765856541,0.642616391837,-119.58398680485804
1698907588004,-99.417282956541,0.6363827918370001,-119.77380090485804
1698907588018,-99.565276556541,0.6274995578370001,-119.95878000485806
1698907588033,-99.706628556541,0.6159532578370001,-120.13862030485804
1698907588048,-99.841627256541,0.6024695878370001,-120.31335910485804
1698907588061,-99.971631156541,0.5883563178370002,-120.48326660485804
1698907588074,-100.096947556541,0.5732879178370002,-120.64885020485804
1698907588087,-100.21737505654102,0.5568049878370002,-120.81000440485803
1698907588101,-100.332800356541,0.5393313878370002,-120.96708150485804
1698907588117,-100.443462256541,0.5218122978370002,-121.12003040485804
1698907588130,-100.549526856541,0.5039982578370003,-121.26906020485804
1698907588143,-100.651487156541,0.4863593278370002,-121.41392660485803
1698907588157,-100.749508526541,0.4692998478370002,-121.55462240485804
1698907588170,-100.843903356541,0.4540755078370002,-121.69144220485803
1698907588185,-100.934717246541,0.4415402278370002,-121.82449780485804
1698907588199,-101.022614366541,0.4321031548370002,-121.95384450485804
1698907588214,-101.107630716541,0.4256279148370002,-122.07983610485805
1698907588227,-101.189961036541,0.4223217928370002,-122.20273380485804
1698907588241,-101.270021046541,0.4220189389370002,-122.32287960485804
1698907588254,-101.347970036541,0.4243657669370002,-122.44064030485804
1698907588269,-101.424337636541,0.4295256379370002,-122.55653350485804
1698907588281,-101.499057396541,0.4364439389370002,-122.67090020485806
1698907588295,-101.572212586541,0.4421581419370002,-122.78328050485806
1698907588309,-101.64319124654098,0.4443104649370002,-122.89337020485806
1698907588324,-101.71209235654098,0.4422563959370002,-123.00137810485806
1698907588336,-101.77873277654098,0.4370343099370002,-123.10746280485806
1698907588350,-101.84261517654096,0.4286347169370002,-123.21184470485808
1698907588365,-101.90315143654098,0.4160252069370002,-123.31375870485806
1698907588380,-101.95945231654098,0.3976910669370002,-123.41197312485806
1698907588393,-102.01096644654098,0.3731128569370002,-123.50575092485806
1698907588407,-102.05708500654096,0.3430995569370002,-123.59482444485806
1698907588421,-102.09627241654096,0.3082064269370002,-123.67842474485806
1698907588434,-102.12836031654096,0.2700967269370002,-123.75663338485806
1698907588448,-102.15319886654096,0.2302675269370002,-123.82978649485808
1698907588462,-102.17153686654096,0.1919429069370002,-123.89886561485808
1698907588477,-102.18334772654096,0.1578720569370001,-123.96441725485806
1698907588491,-102.18931587454097,0.1304958869370001,-124.02732720485808
1698907588505,-102.19004622884096,0.1112332369370001,-124.08796759485809
1698907588518,-102.18562900284095,0.1013393229370001,-124.14755312485808
1698907588533,-102.17673079284096,0.1002005479370001,-124.20675138485808
1698907588547,-102.16361437284095,0.1076959329370002,-124.26648117485809
1698907588559,-102.14701056284096,0.1218630129370001,-124.32717666485809
1698907588573,-102.12625444284096,0.1393740429370002,-124.38870361485807
1698907588588,-102.10140028284094,0.1560797629370002,-124.45074010485808
1698907588602,-102.07215837284096,0.1691019729370002,-124.51355061485808
1698907588615,-102.03963856284096,0.1785111359370002,-124.5773096348581
1698907588629,-102.00429870284096,0.1849706699370002,-124.6425653948581
1698907588643,-101.96702191284096,0.1882248549370002,-124.70938595485808
1698907588658,-101.92851158284095,0.1883577724370002,-124.77760224485807
1698907588672,-101.88931461284096,0.1852449434370001,-124.84666696485807
1698907588685,-101.84950817284094,0.1800051134370001,-124.91627431485809
1698907588701,-101.80867938284094,0.1721701544370001,-124.98581925485809
1698907588716,-101.76629685284094,0.1610801744370001,-125.05438366485808
1698907588727,-101.72257593284094,0.1477205344370001,-125.12166480485809
1698907588740,-101.67703910284094,0.1322837544370001,-125.18713176485808
1698907588755,-101.62983715284092,0.1162419044370001,-125.25053690485808
1698907588768,-101.58119404284092,0.1005128444370001,-125.31182550485808
1698907588783,-101.53152920284091,0.0859551944370001,-125.37088332485808
1698907588797,-101.48112594284092,0.0730555244370001,-125.42772739485808
1698907588811,-101.43035852284092,0.0620456544370001,-125.48217348485808
1698907588824,-101.37960846284092,0.0526304324370001,-125.53380157485807
1698907588838,-101.32923667284092,0.0452245604370001,-125.58253530485808
1698907588853,-101.27931657284094,0.0395264124370001,-125.62833542485808
1698907588866,-101.22980630284094,0.0351166724370001,-125.67085248485806
1698907588880,-101.18069386284094,0.0323071424370001,-125.71010600485806
1698907588893,-101.13202527284092,0.0304829704370001,-125.74606902485806
1698907588906,-101.08391529284091,0.0307021129370001,-125.77903574485806
1698907588920,-101.03624099284092,0.0327308119370001,-125.80903833485806
1698907588935,-100.98903701284092,0.0365187769370001,-125.83629027485806
1698907588950,-100.94266701284091,0.0416316549370001,-125.86115207485804
1698907588963,-100.89708700284092,0.0476204639370001,-125.88403533485804
1698907588976,-100.85265308284092,0.0538439579370001,-125.90511724485806
1698907588991,-100.80952451284094,0.0594997539370001,-125.92455006485808
1698907589003,-100.76765248284094,0.0642043589370001,-125.94243074485809
1698907589020,-100.72674934284096,0.0684165659370001,-125.95914304485808
1698907589033,-100.68700516284096,0.0723102389370001,-125.97492023485806
1698907589045,-100.64816445284094,0.0755259669370001,-125.98983946485806
1698907589059,-100.61012355284096,0.0774976319370001,-126.00384595485806
1698907589075,-100.57298895284094,0.0781878138370001,-126.01712878485806
1698907589089,-100.53658772284096,0.0779687214370001,-126.02969305485806
1698907589102,-100.50072808284096,0.0770099780370001,-126.04179211485804
1698907589116,-100.46525974284096,0.0762923509370001,-126.05345512485806
1698907589130,-100.43041321284096,0.0761903385370001,-126.06477810485806
1698907589143,-100.39624807284096,0.0771416783370001,-126.07565960485806
1698907589158,-100.36262817284096,0.0783490093370001,-126.08597719485806
1698907589170,-100.32938830284095,0.0799833073370001,-126.09599162485806
1698907589188,-100.29696351284096,0.0814669303370001,-126.10537548185806
1698907589200,-100.26531535284096,0.0824741843370001,-126.11418566085806
1698907589213,-100.23447987284096,0.0830406454370001,-126.12264115485806
1698907589227,-100.20467132284097,0.0828080813370001,-126.13076493685806
1698907589241,-100.17610648284096,0.0822669840370001,-126.13866949085806
1698907589256,-100.14886823284095,0.0814554776370001,-126.14643275085808
1698907589269,-100.12280806284096,0.0805211039370001,-126.15406845285808
1698907589281,-100.09808945284098,0.0792114429370001,-126.16166647585808
1698907589296,-100.07456518284098,0.0775651889370001,-126.16917586885808
1698907589311,-100.052567632841,0.0757046299370001,-126.17612445485808
1698907589324,-100.031601652841,0.0737350589370001,-126.18252804585806
1698907589338,-100.011391832841,0.0714493409370001,-126.18841359485806
1698907589352,-99.99203678284098,0.0686178579370001,-126.19354584585808
1698907589364,-99.97348141284098,0.0653344939370001,-126.19811057385807
1698907589378,-99.95606012284098,0.0621116769370001,-126.20202101285808
1698907589394,-99.939695552841,0.0591448969370001,-126.20533546785806
1698907589408,-99.924437402841,0.0569889719370001,-126.20802274985806
1698907589422,-99.910086262841,0.0559691429370001,-126.21031231585806
1698907589435,-99.896557912841,0.0555983244370001,-126.21210008985804
1698907589448,-99.883944742841,0.0555175396570001,-126.21337362785806
1698907589463,-99.872002602841,0.0555217213530001,-126.21404620295806
1698907589476,-99.861098542841,0.0551900367530001,-126.21402751550806
1698907589491,-99.850900612841,0.0544870288530001,-126.21338871990808
1698907589506,-99.841538346841,0.0531812388530001,-126.21216504090806
1698907589518,-99.833257488841,0.0512493918530001,-126.21030814390808
1698907589532,-99.825797636841,0.0493259128530001,-126.20797592890808
1698907589547,-99.81935180684098,0.0474961878530001,-126.20502925690808
1698907589561,-99.81364688084098,0.0460396068530001,-126.20160136390808
1698907589574,-99.80851773784096,0.0449795358530001,-126.19761963990808
1698907589588,-99.80400551184096,0.0440743708530001,-126.19310329490808
1698907589601,-99.80057760984096,0.0436031984530001,-126.18811455690808
1698907589616,-99.79811181084096,0.0433560518530001,-126.18292561590808
1698907589630,-99.79683762384096,0.0435933261530001,-126.17759784090808
1698907589644,-99.79654937064096,0.0435908732240001,-126.17216882690808
1698907589657,-99.79751698294096,0.0433984839240001,-126.16649226490809
1698907589670,-99.79936872794096,0.0434648841640001,-126.16079785990809
1698907589684,-99.80198380894096,0.0437608365640001,-126.15512666590809
1698907589699,-99.80517845094096,0.0439440382640001,-126.14951356290808
1698907589714,-99.80894302494096,0.0444018122640001,-126.14407134290808
1698907589728,-99.81358200194096,0.0448585095640001,-126.13836499890807
1698907589741,-99.81901068894096,0.0454959133640001,-126.13245307790808
1698907589755,-99.82533857694096,0.0464180862640001,-126.12648922990807
1698907589768,-99.83252998894096,0.0473194917640001,-126.12047881590809
1698907589782,-99.84094183294096,0.0484100217640001,-126.11433952890808
1698907589796,-99.85062847394096,0.0493984119640001,-126.10790690190808
1698907589809,-99.86181980394096,0.0496778626640001,-126.10093533590808
1698907589824,-99.87439832394097,0.0494863571640001,-126.09345521490808
1698907589837,-99.88836040394096,0.0487507408640001,-126.08548592090808
1698907589852,-99.90341444394096,0.0474333208640001,-126.07733558590807
1698907589867,-99.91947192394096,0.0463032548640001,-126.06897246690808
1698907589881,-99.93637531394096,0.0452373668640001,-126.06068864890808
1698907589894,-99.95399697394096,0.0440997338640001,-126.05231481390808
1698907589908,-99.97252484394096,0.0429625178640001,-126.04373483990808
1698907589922,-99.99184702394096,0.0419477238640001,-126.03489331390809
1698907589935,-100.01155943394096,0.0409040748640001,-126.02597607890807
1698907589949,-100.03127754394096,0.0399568897640001,-126.01733027290808
1698907589963,-100.05118500394096,0.0391562630640001,-126.00907548690807
1698907589976,-100.07107765394096,0.0382355813640001,-126.00125826490807
1698907589991,-100.09096058394096,0.0372127753640001,-125.99405663690808
1698907590005,-100.11061221394095,0.0356398153640001,-125.98757765790808
1698907590017,-100.13032031394096,0.0341997393640001,-125.9818334779081
1698907590030,-100.14967269394096,0.0328206133640001,-125.9770141219081
1698907590046,-100.16856264394096,0.0317047203640001,-125.9733259529081
1698907590060,-100.18704191394096,0.0309483819640001,-125.9707930209081
1698907590073,-100.20482913394096,0.0300560326640001,-125.96935634890812
1698907590088,-100.22188825394096,0.0288594246640001,-125.96900002260811
1698907590102,-100.23814554394096,0.0269056046640001,-125.96959399450812
1698907590115,-100.25357462394096,0.0243830126640001,-125.97105801950812
1698907590129,-100.26808290394096,0.0219331536640001,-125.97356704250812
1698907590143,-100.28200910394096,0.0198414786640001,-125.97696863550811
1698907590157,-100.29537318394097,0.0181352836640001,-125.98098464150812
1698907590170,-100.30827206394096,0.0167204466640001,-125.98529573450811
1698907590184,-100.32072230394095,0.0156174566640001,-125.98976659050813
1698907590198,-100.33282194394096,0.0146365724640001,-125.99416102250812
1698907590213,-100.34475058394096,0.0137574648640001,-125.99843770650811
1698907590227,-100.35643029394096,0.0130622216640001,-126.00262533950811
1698907590241,-100.36799760394096,0.0124503345640001,-126.00678971450812
1698907590255,-100.37945066394096,0.0118411594640001,-126.01094699450812
1698907590269,-100.39112666394097,0.0112159305640001,-126.01504137950812
1698907590282,-100.40280917394097,0.0102619661640001,-126.01896762850814
1698907590296,-100.41443513394096,0.0093036885640001,-126.02298445250814
1698907590310,-100.42566960394096,0.0083045596640001,-126.02720142450814
1698907590324,-100.43672658394097,0.0073078531640001,-126.03152230350814
1698907590337,-100.44707903394097,0.0062432491640001,-126.03608160650812
1698907590352,-100.45698322494096,0.0052551335640001,-126.04087491950813
1698907590365,-100.46641757994097,0.0044671299640001,-126.04568806150812
1698907590380,-100.47543623194096,0.0034863264640001,-126.05048406850813
1698907590393,-100.48409581494096,0.0026498499640001,-126.05535910650812
1698907590406,-100.49282877994096,0.0016259579640001,-126.06036837350813
1698907590419,-100.50146769694096,0.0004749779640001,-126.06547015650813
1698907590434,-100.51045084494096,-0.0007965200359998,-126.07062515250811
1698907590449,-100.51955517694095,-0.0024589280359998,-126.07574529450812
1698907590463,-100.52879025094096,-0.0042006170359998,-126.08075904050813
1698907590477,-100.53818368794096,-0.0061899510359998,-126.08540682750812
1698907590490,-100.54745693194096,-0.0084745570359998,-126.08967006450813
1698907590504,-100.55643221794097,-0.0111809160359998,-126.09355422150811
1698907590519,-100.56532773394096,-0.0137295620359998,-126.09718682150812
1698907590532,-100.57421691494096,-0.0159927100359998,-126.10061856950811
1698907590545,-100.58272160694096,-0.0178096330359998,-126.10386297550812
1698907590561,-100.59100191594096,-0.0194469120359998,-126.10692227050812
1698907590574,-100.59871134594096,-0.0213589560359998,-126.10992313650812
1698907590588,-100.60613481294097,-0.0234415540359998,-126.11267665850812
1698907590602,-100.61297742994095,-0.0258736930359998,-126.11541350650812
1698907590616,-100.61905307094096,-0.0283191560359998,-126.11813684050811
1698907590630,-100.62433763294096,-0.0306925820359998,-126.12089635850812
1698907590642,-100.62860621594096,-0.0331076060359998,-126.12369214050813
1698907590657,-100.63236685494095,-0.0355167960359998,-126.12648652950811
1698907590670,-100.63531255594096,-0.0378224720359998,-126.12933040550811
1698907590685,-100.63779432094096,-0.0400722620359998,-126.13211525850812
1698907590699,-100.63971687094096,-0.0416373610359998,-126.13500581850812
1698907590712,-100.64126616294097,-0.0423907086359998,-126.13774591050812
1698907590727,-100.64214592574096,-0.0431162536359998,-126.14017929350813
1698907590741,-100.64228578954096,-0.0437258045359998,-126.14253347950812
1698907590755,-100.64195711204096,-0.0439817143359998,-126.14474771250812
1698907590768,-100.64121348964098,-0.0439728640939998,-126.14673791150813
1698907590782,-100.64018039764098,-0.0437476878939998,-126.14858202050812
1698907590795,-100.63897581464096,-0.0432188689939998,-126.15027965150811
1698907590809,-100.63748819464097,-0.0426471345939998,-126.15187826750812
1698907590823,-100.63589349964096,-0.0420827006939998,-126.15329506550812
1698907590838,-100.63419438464098,-0.0417591255939998,-126.15452945950813
1698907590850,-100.63223883364098,-0.0418567655739998,-126.15542189960811
1698907590865,-100.63011740664098,-0.0420224348739998,-126.15609114350812
1698907590879,-100.62782330864098,-0.0422726878739998,-126.15667978990813
1698907590893,-100.62503164464098,-0.0423958225739998,-126.15738955030812
1698907590907,-100.621919649641,-0.0422134355739998,-126.15814381010811
1698907590921,-100.618454901641,-0.0414871210739998,-126.15898233410812
1698907590935,-100.614755115641,-0.0405360065739998,-126.15990412130812
1698907590947,-100.61072914464098,-0.0395236255739998,-126.16089853880813
1698907590961,-100.60629186564098,-0.0387603629739998,-126.16192037080812
1698907590976,-100.601599970641,-0.0382309044739998,-126.16305938980813
1698907590992,-100.59673574564098,-0.0377151926739998,-126.16427195380813
1698907591004,-100.59162030764098,-0.0366337906739998,-126.16570671880812
1698907591018,-100.58626969964098,-0.0352457616739998,-126.16738230880811
1698907591034,-100.58058062864096,-0.0337132036739998,-126.16926963980814
1698907591045,-100.57470196664096,-0.0323540436739998,-126.17121180380812
1698907591058,-100.56860023564096,-0.0311686276739998,-126.17326839580814
1698907591073,-100.56241812064096,-0.0305174848739998,-126.17538554380812
1698907591087,-100.55631301964095,-0.0297120862739998,-126.17767952980812
1698907591102,-100.55033577664096,-0.0290747020739998,-126.17996201080813
1698907591118,-100.54444680264096,-0.0285759192739998,-126.18227680780812
1698907591130,-100.53830649464096,-0.0282053455739998,-126.18466276480812
1698907591142,-100.53235949864096,-0.0280829978739998,-126.18702948180812
1698907591156,-100.52625253764096,-0.0280873008749998,-126.18954555780812
1698907591171,-100.52013603864096,-0.0281981145749998,-126.19211687580813
1698907591185,-100.51392722564096,-0.0281575338549998,-126.19467877680812
1698907591198,-100.50781750464095,-0.0281165833149998,-126.19715151580812
1698907591213,-100.50162917564096,-0.0279764649149998,-126.19950846580814
1698907591227,-100.49555834464095,-0.0277741073149998,-126.20180168080812
1698907591241,-100.48982786964096,-0.0272347425149998,-126.20410915780812
1698907591254,-100.48445715064096,-0.0261999825149998,-126.20670673980814
1698907591268,-100.47937584564096,-0.0248901715149998,-126.20949600980812
1698907591281,-100.47467693464095,-0.0237215405149998,-126.21271730080814
1698907591296,-100.47025296264096,-0.0230240097149998,-126.21611567980814
1698907591310,-100.46618683664096,-0.0229937569749998,-126.21945002980814
1698907591324,-100.46236828964096,-0.0235014447749998,-126.22259357180816
1698907591337,-100.45893617364096,-0.0239821154749998,-126.22560180480816
1698907591352,-100.45565938664096,-0.0249072949749998,-126.22832522880816
1698907591365,-100.45254493464095,-0.0251821760749998,-126.23099124080817
1698907591377,-100.44951919564096,-0.0248989013749998,-126.23348071380816
1698907591393,-100.44640285064096,-0.0244994364749998,-126.23572483880815
1698907591406,-100.44348461664096,-0.0243697327749998,-126.23754763380816
1698907591420,-100.44044322164096,-0.0245806724749998,-126.23906324480816
1698907591436,-100.43765621064097,-0.0248426591749998,-126.24028752080817
1698907591449,-100.43497111864096,-0.0248625431049998,-126.24152408480816
1698907591462,-100.43224754564098,-0.0244374182049998,-126.24278737980816
1698907591477,-100.42965743264098,-0.0237012057049998,-126.24391085380816
1698907591490,-100.42710895964098,-0.0229012397049998,-126.24457498050816
1698907591503,-100.42467168664098,-0.0221024440049998,-126.24468572270814
1698907591518,-100.42231400164096,-0.0215080908049998,-126.24430586390814
1698907591531,-100.42012644564096,-0.0205994246049998,-126.24391924480814
1698907591545,-100.41812597264098,-0.0192824676049998,-126.24368753540814
1698907591560,-100.41627610964098,-0.0171224536049998,-126.24385930770816
1698907591573,-100.41468009364098,-0.0145821906049998,-126.24416673220814
1698907591588,-100.41294977864098,-0.0118232946049998,-126.24461578690814
1698907591602,-100.41149289964098,-0.0091862906049998,-126.24504132710814
1698907591616,-100.41018789364098,-0.0067217446049998,-126.24546574670812
1698907591629,-100.40910751764098,-0.0038310006049998,-126.24612987490814
1698907591643,-100.40824492944098,-0.0009418686049998,-126.24692575830814
1698907591657,-100.40734183324098,0.0016285193950001,-126.24785938430814
1698907591671,-100.40665829844096,0.0035410273950001,-126.24875814480814
1698907591684,-100.40627975654095,0.0047919023950001,-126.24973078820814
1698907591698,-100.40591872724096,0.0049004657950001,-126.25062241720812
1698907591713,-100.40570057364096,0.0042723288950001,-126.25135111140814
1698907591727,-100.40558772154095,0.0030382048950001,-126.25176546610814
1698907591740,-100.40556593935096,0.0017351038950001,-126.25194596770814
1698907591756,-100.40601224015096,0.0008435307950001,-126.25217807810814
1698907591768,-100.40653405775096,0.0007237216950001,-126.25282050210816
1698907591781,-100.40736191705096,0.0011164600950001,-126.25355055030816
1698907591796,-100.40801239965096,0.0006806383950001,-126.25404115170817
1698907591809,-100.40851975995096,-0.0006584756049998,-126.25403095880814
1698907591824,-100.40875104185096,-0.0031950376049998,-126.25358864010816
1698907591837,-100.40886769285096,-0.0064035626049998,-126.25275800490816
1698907591852,-100.40927807655096,-0.0093472736049998,-126.25148407290814
1698907591866,-100.41006903495096,-0.0116596956049998,-126.24958179190814
1698907591879,-100.41109923495095,-0.0133735126049998,-126.24691239090814
1698907591892,-100.41230633495096,-0.0151550866049998,-126.24301409690814
1698907591906,-100.41365407195096,-0.0173220826049998,-126.23765118590812
1698907591922,-100.41511340095096,-0.0203628776049998,-126.23057148490814
1698907591935,-100.41663553895096,-0.0244816036049998,-126.22179342090814
1698907591949,-100.41802523995096,-0.0296350196049998,-126.21131917090814
1698907591963,-100.41922487895096,-0.0353214096049998,-126.19940292090814
1698907591975,-100.42032461995096,-0.0411941296049998,-126.18608169090814
1698907591989,-100.42091185705098,-0.0474012356049998,-126.17129378090814
1698907592004,-100.42118535245098,-0.0542931486049998,-126.15453780090814
1698907592017,-100.42085264725098,-0.0617574606049998,-126.13580080090814
1698907592031,-100.41983831425098,-0.0702107066049998,-126.11481272090816
1698907592046,-100.418237791251,-0.0794049936049998,-126.09186545090814
1698907592061,-100.415987792251,-0.0888113716049998,-126.06763061090814
1698907592074,-100.413296668251,-0.0989382716049998,-126.04225091090814
1698907592088,-100.409992478251,-0.1113172716049998,-126.01566696090812
1698907592100,-100.406591913251,-0.1267136316049998,-125.98789799090814
1698907592115,-100.403615992251,-0.1460655616049997,-125.95828651090814
1698907592130,-100.401563968251,-0.1682010516049998,-125.92644052090814
1698907592142,-100.400385141251,-0.1920913716049997,-125.89229151090817
1698907592158,-100.400130334151,-0.2167114416049997,-125.85537192090815
1698907592171,-100.400499758151,-0.2411141416049997,-125.81547631090817
1698907592184,-100.40162371715098,-0.2658528816049997,-125.77209342090816
1698907592199,-100.40333359015098,-0.2911290016049997,-125.72534613090816
1698907592212,-100.40482959215096,-0.3175577616049997,-125.67506038090816
1698907592227,-100.40639438915098,-0.3438307016049998,-125.62110614090815
1698907592241,-100.40777769715098,-0.3687175116049997,-125.56386836090816
1698907592255,-100.40938420215096,-0.3915356416049997,-125.50402858090816
1698907592268,-100.41117271215096,-0.4127220616049997,-125.44226552090817
1698907592282,-100.41267041515096,-0.4333838216049998,-125.37877584090816
1698907592296,-100.41364234335096,-0.4538100216049998,-125.31442243090817
1698907592309,-100.41427836035098,-0.4731580016049997,-125.25023039090816
1698907592322,-100.41415526185098,-0.4900811016049998,-125.18677242090816
1698907592336,-100.41301048785098,-0.5043032616049998,-125.12465745090816
1698907592352,-100.410524627851,-0.5171197116049998,-125.06396049090816
1698907592366,-100.40604943485098,-0.5303989216049998,-125.00441067090816
1698907592379,-100.399996480851,-0.5447959916049998,-124.94592509090816
1698907592392,-100.392805861851,-0.5596832916049999,-124.88908328090815
1698907592406,-100.38542926885098,-0.5730719616049998,-124.83422970090815
1698907592420,-100.37798165885098,-0.5841500816049998,-124.78177655090816
1698907592434,-100.36998865785098,-0.5927449636049998,-124.73202079090817
1698907592448,-100.36034988085098,-0.5995822236049998,-124.68488724090815
1698907592463,-100.34952704085096,-0.6051326676049998,-124.64036563090816
1698907592476,-100.33782888085098,-0.6091310186049999,-124.59847788090816
1698907592489,-100.32531200085096,-0.6111424956049999,-124.55988191090816
1698907592502,-100.31167881085098,-0.6118072578049999,-124.52452328090816
1698907592518,-100.29706318085098,-0.6115524243049999,-124.49211361090816
1698907592532,-100.28119232085098,-0.6103691713049999,-124.46269557090817
1698907592544,-100.26417098085098,-0.607714983305,-124.43593533090817
1698907592560,-100.24647151085098,-0.6027622363049999,-124.41192467090816
1698907592572,-100.22798383085096,-0.5961018573049999,-124.39042214090814
1698907592586,-100.20874654085095,-0.5884438783049999,-124.37084956090814
1698907592600,-100.18931933085096,-0.5801451263049999,-124.35303543090814
1698907592613,-100.16959612085095,-0.5713631763049999,-124.33657300090812
1698907592627,-100.15018213085096,-0.5617905253049998,-124.32152657090812
1698907592642,-100.13109675085096,-0.5514508553049998,-124.30787553090812
1698907592655,-100.11226979085096,-0.5411013453049999,-124.29531414090812
1698907592669,-100.09403885085096,-0.5315482113049999,-124.28327318090814
1698907592684,-100.07651279085096,-0.5231545643049998,-124.27170519090814
1698907592697,-100.06016645085096,-0.5155704173049999,-124.26081594090812
1698907592711,-100.04501813085098,-0.5085270343049999,-124.25092211990813
1698907592729,-100.03105440085098,-0.5019598963049999,-124.24217566390811
1698907592738,-100.01797115085098,-0.4960029183049999,-124.23483925190811
1698907592752,-100.00565973085098,-0.4907271733049999,-124.22875459690812
1698907592766,-99.99394451085098,-0.4856952323049999,-124.22422543790812
1698907592781,-99.982579300851,-0.4807256113049999,-124.22129104390814
1698907592794,-99.971494260851,-0.4757616913049999,-124.21996969290814
1698907592808,-99.960347950851,-0.4710379703049999,-124.22001757080814
1698907592823,-99.94906859085098,-0.4671485373049999,-124.22097619320814
1698907592835,-99.937735210851,-0.4642128653049999,-124.22275961120816
1698907592850,-99.926074840851,-0.4620814553049999,-124.22506516820816
1698907592864,-99.914633310851,-0.4604045753049999,-124.22811467720814
1698907592879,-99.903356680851,-0.4581583763049999,-124.23200651420814
1698907592893,-99.892641220851,-0.4554165353049999,-124.23677297320812
1698907592905,-99.882387530851,-0.4520854283049999,-124.24251115420812
1698907592918,-99.872512651851,-0.4479326633049999,-124.24892259020812
1698907592933,-99.862921595851,-0.4434646263049999,-124.25582262520813
1698907592947,-99.853372600851,-0.4389582343049999,-124.26311458220812
1698907592962,-99.843882965851,-0.4345652843049999,-124.27084523920811
1698907592975,-99.834765485851,-0.4295574943049999,-124.27916774820812
1698907592991,-99.825747130851,-0.4241189143049998,-124.28809706220812
1698907593003,-99.817168662851,-0.4183248963049998,-124.29778676020813
1698907593017,-99.808985274851,-0.4127407953049998,-124.30802733020812
1698907593031,-99.801117834851,-0.4077916483049998,-124.31861339020811
1698907593046,-99.793683664851,-0.4037825433049998,-124.32932793020812
1698907593058,-99.786831790851,-0.4007610703049998,-124.3399372602081
1698907593072,-99.780412328851,-0.3988719823049999,-124.3506081302081
1698907593086,-99.775086329851,-0.3973544963049998,-124.3616750802081
1698907593100,-99.770895693851,-0.3959396943049998,-124.3733185702081
1698907593115,-99.767787932851,-0.3941406643049999,-124.3857588202081
1698907593129,-99.765795196851,-0.3921710043049999,-124.3991693902081
1698907593141,-99.764805803951,-0.3902191543049999,-124.4132247902081
1698907593156,-99.764705940561,-0.3884039223049999,-124.42775724020812
1698907593170,-99.765289023961,-0.3864420683049999,-124.44287508020813
1698907593186,-99.766517037961,-0.3845083873049999,-124.4584629902081
1698907593199,-99.768430303961,-0.3829549003049999,-124.47399558020813
1698907593215,-99.770822186961,-0.3821039058049999,-124.48938890020813
1698907593228,-99.773785097961,-0.3818536315049999,-124.5046521902081
1698907593240,-99.777092006961,-0.3819249112649999,-124.5199301902081
1698907593255,-99.78110451496102,-0.3821577283649999,-124.5353218002081
1698907593269,-99.785341317961,-0.3818703538649999,-124.5509229102081
1698907593282,-99.789695341961,-0.3813969313649999,-124.5664224202081
1698907593296,-99.793943171961,-0.3811170040649999,-124.5818661902081
1698907593311,-99.797944580961,-0.3810393967649999,-124.5973592302081
1698907593324,-99.801992000961,-0.3811955159649999,-124.6128865102081
1698907593337,-99.806105037961,-0.3818378665649999,-124.6284577602081
1698907593351,-99.810024678961,-0.3829521725649999,-124.6443481802081
1698907593367,-99.813961460961,-0.384480357565,-124.6604364202081
1698907593380,-99.817744640961,-0.386550308565,-124.6767369802081
1698907593393,-99.821314409961,-0.388152425565,-124.6933742802081
1698907593406,-99.824797072961,-0.389216626565,-124.7104446002081
1698907593421,-99.82836734996098,-0.390141985165,-124.72766210020812
1698907593436,-99.83204641696098,-0.3911747151649999,-124.7448507002081
1698907593449,-99.83616083796096,-0.3929659471649999,-124.7614166702081
1698907593463,-99.84062843296095,-0.3955440071649999,-124.77723169020813
1698907593476,-99.84549939496095,-0.3990181701649999,-124.79215357020811
1698907593490,-99.85083150496096,-0.4029269511649999,-124.80621091020812
1698907593504,-99.85703386696096,-0.4070153961649999,-124.81938423020812
1698907593520,-99.86392190896096,-0.4108771271649998,-124.83165023020813
1698907593533,-99.87126469796095,-0.4141578311649999,-124.84314212020811
1698907593546,-99.87880735496095,-0.4170036971649998,-124.85370660020811
1698907593560,-99.88658760196095,-0.4195015141649998,-124.86333829720812
1698907593573,-99.89422521496095,-0.4218254451649998,-124.87204683920812
1698907593587,-99.90187302396096,-0.4236696831649998,-124.88000503820813
1698907593602,-99.90950767296096,-0.4249987691649998,-124.8873759882081
1698907593615,-99.91683066496095,-0.4260507331649998,-124.89412059520812
1698907593629,-99.92403102996096,-0.4266766433649999,-124.9004272992081
1698907593643,-99.93084091996096,-0.4266720309609998,-124.9064187062081
1698907593657,-99.93741833396098,-0.4267575462109998,-124.9124735962081
1698907593671,-99.94348620396096,-0.4269560571109999,-124.9187330272081
1698907593686,-99.94937679796097,-0.4271034621109998,-124.92520366320812
1698907593700,-99.95455050996097,-0.4272043203109998,-124.93195245220812
1698907593713,-99.95887468196096,-0.4276478333109998,-124.93900789620812
1698907593727,-99.96216645696096,-0.4285501184109999,-124.94632633820812
1698907593740,-99.96459319396097,-0.4302927184109998,-124.95384447720812
1698907593755,-99.96655344296096,-0.4328303464109999,-124.96140436120812
1698907593769,-99.96791258096096,-0.4365553854109998,-124.96895919320812
1698907593783,-99.96914914296096,-0.4410934004109998,-124.97638543020813
1698907593796,-99.97021040296096,-0.4465838764109999,-124.9836279512081
1698907593810,-99.97123206796095,-0.4525333104109998,-124.99066820620811
1698907593824,-99.97205275356096,-0.4587091134109998,-124.99763730120812
1698907593838,-99.97292837136096,-0.4647253624109998,-125.00437081220812
1698907593851,-99.97364347066096,-0.4708734014109998,-125.0107067902081
1698907593865,-99.97394763856096,-0.4770756684109998,-125.0167867032081
1698907593879,-99.97355208376096,-0.4832533624109998,-125.0223627692081
1698907593894,-99.97262943566096,-0.4888473114109998,-125.0273708722081
1698907593906,-99.97132496666096,-0.4933342204109998,-125.03179778720808
1698907593922,-99.96928736566096,-0.4970235774109998,-125.03575883620807
1698907593935,-99.96692690866097,-0.4994326894109998,-125.0391866112081
1698907593949,-99.96391451466096,-0.5011281894109998,-125.0416247382081
1698907593962,-99.96049592266095,-0.5022977434109998,-125.0427928102081
1698907593975,-99.95628395566096,-0.5029302329109998,-125.0429732125081
1698907593989,-99.95147825066095,-0.5029300421353998,-125.0422250721081
1698907594004,-99.94629686466097,-0.5022342226353999,-125.0405281641081
1698907594017,-99.94074888566097,-0.5011016696353998,-125.0379050781081
1698907594030,-99.93509334066096,-0.4995178536353998,-125.03452157210808
1698907594045,-99.92927721166096,-0.4975798236353998,-125.03076073510807
1698907594059,-99.92324203466096,-0.4958210976353998,-125.02662223810808
1698907594074,-99.91722136066096,-0.4946752176353998,-125.02221405010808
1698907594089,-99.91125925366096,-0.4943849253353998,-125.01732768310808
1698907594101,-99.90527370666098,-0.4951394259353998,-125.01213834610807
1698907594114,-99.89921538166098,-0.4963927969353998,-125.00665902610808
1698907594129,-99.89303875266098,-0.4974234569353998,-125.00111939510808
1698907594143,-99.886426765661,-0.4984875209353998,-124.99548183310807
1698907594157,-99.879183622661,-0.4994310465353998,-124.98995338810808
1698907594171,-99.871477641661,-0.5005579885353998,-124.98439390410807
1698907594183,-99.86334694266098,-0.5015295020353998,-124.97912372310807
1698907594198,-99.85483297466098,-0.5027584160353998,-124.97413958710808
1698907594212,-99.84622969066098,-0.5039939720353999,-124.96954713410808
1698907594226,-99.83752773066098,-0.5056837650353999,-124.96493679810808
1698907594240,-99.82862073266098,-0.5077025600353999,-124.96012592110807
1698907594256,-99.81956688766098,-0.5092725930354,-124.95516395310808
1698907594269,-99.810188837661,-0.5106413580354,-124.94991195010807
1698907594281,-99.80093676266098,-0.5112165417354,-124.94433318010807
1698907594295,-99.79151023866098,-0.5113851726354,-124.93865501110808
1698907594309,-99.78212790166096,-0.5109539037354,-124.93295588810808
1698907594323,-99.77269506966095,-0.5102410488354,-124.92708978510808
1698907594338,-99.76337015966097,-0.5093084695354,-124.92099996610808
1698907594352,-99.75409725566097,-0.5084790751354,-124.91450356210808
1698907594366,-99.74492023366096,-0.5076915010354001,-124.90775780210808
1698907594380,-99.73603452866097,-0.5068489054354001,-124.90072682610808
1698907594393,-99.72733472766096,-0.5057407254354,-124.89362072510806
1698907594407,-99.71875542866096,-0.5045868324354,-124.88642421910806
1698907594420,-99.71086843466097,-0.5031272994354,-124.87913640010808
1698907594434,-99.70354433066096,-0.5018588084354,-124.87209694210809
1698907594449,-99.69647779066096,-0.5011808127353999,-124.86524827610808
1698907594463,-99.68990083266095,-0.5016236022353999,-124.85850331010808
1698907594475,-99.68373004966097,-0.5029974452353999,-124.85169573510808
1698907594490,-99.67784094066096,-0.5047626312353999,-124.84477316210808
1698907594503,-99.67202322166096,-0.5066788122353999,-124.83762785110808
1698907594517,-99.66614716966096,-0.5087713262353999,-124.83033760110808
1698907594529,-99.66028763166096,-0.5110815002353999,-124.82291088010808
1698907594545,-99.65463566266097,-0.5132090682353999,-124.81552150610808
1698907594559,-99.64920393166096,-0.5150426762353999,-124.80791190910809
1698907594572,-99.64381391166096,-0.5169546512353999,-124.80017485010808
1698907594588,-99.63773816066096,-0.5191225462353999,-124.7925874961081
1698907594602,-99.63109718966096,-0.5215369362353999,-124.7852123651081
1698907594614,-99.62384008966096,-0.5239913422353999,-124.77831400210808
1698907594628,-99.61555554366096,-0.5267091542353999,-124.7719265631081
1698907594642,-99.60654348166096,-0.5294998022353998,-124.76588623710808
1698907594656,-99.59670043066096,-0.5323892432353998,-124.76039051610807
1698907594669,-99.58621140066096,-0.5352477202353998,-124.75510674310809
1698907594685,-99.57527464066096,-0.5378406102353998,-124.75008361710807
1698907594698,-99.56366807066097,-0.5406570112353998,-124.74537624810807
1698907594712,-99.55112415066095,-0.5431996962353998,-124.74133000710808
1698907594727,-99.53820949066096,-0.5449788942353998,-124.73781399310808
1698907594738,-99.52514232066096,-0.5462644422353998,-124.7349672731081
1698907594753,-99.51202373066094,-0.5470913278353998,-124.73296972510808
1698907594766,-99.49915744066094,-0.5475751010353999,-124.7314638761081
1698907594781,-99.48636014066092,-0.5478232115353998,-124.73029809010808
1698907594794,-99.47371031066092,-0.5476727326353998,-124.72921857810807
1698907594809,-99.46148443066092,-0.5471150645353998,-124.7281232221081
1698907594823,-99.44954403066092,-0.5468167792353998,-124.7268353991081
1698907594836,-99.43815554066092,-0.5466116707353998,-124.72534394810808
1698907594849,-99.42697016066091,-0.5466227943353998,-124.72370154910809
1698907594863,-99.41638385066094,-0.5469298630353998,-124.72173867110808
1698907594880,-99.40608750066092,-0.5476513974353998,-124.71949712710808
1698907594894,-99.39581471066091,-0.5486835254353998,-124.71707840310808
1698907594905,-99.38599589366092,-0.5499381764353998,-124.7143601621081
1698907594920,-99.37643617666092,-0.5510055974353998,-124.71137011010808
1698907594933,-99.36724197066091,-0.5518291239353997,-124.7080219281081
1698907594947,-99.35846782366092,-0.5525476132353997,-124.7043586161081
1698907594961,-99.34995934166092,-0.5533403616353997,-124.7002911841081
1698907594976,-99.34157256166094,-0.5543813306353996,-124.69587325310808
1698907594990,-99.33337578166092,-0.5550798342353996,-124.6913679991081
1698907595003,-99.32514564466094,-0.5549295943353997,-124.6871417511081
1698907595017,-99.31668516166094,-0.5543455176353996,-124.6832110171081
1698907595031,-99.30798093166094,-0.5529451236353996,-124.67963742810812
1698907595045,-99.29910290166092,-0.5512065176353996,-124.67630304010812
1698907595060,-99.29006629666092,-0.5495617086353997,-124.6733433361081
1698907595073,-99.28078329466092,-0.5478166546353996,-124.6707085141081
1698907595088,-99.27109981466091,-0.5460402966353997,-124.6688220051081
1698907595101,-99.26168299766093,-0.5439641836353997,-124.6677871631081
1698907595117,-99.25214032166092,-0.5416078116353996,-124.6677192776081
1698907595131,-99.24276354966092,-0.5395677066353997,-124.6682969381081
1698907595144,-99.23379561466092,-0.5377667576353996,-124.6695079361081
1698907595159,-99.22507838566092,-0.5364120276353996,-124.67131638410812
1698907595172,-99.21692897366091,-0.5353539326353997,-124.67365138310812
1698907595185,-99.20887691066092,-0.5347896761353996,-124.6765753871081
1698907595199,-99.20148272466092,-0.5345754461353996,-124.6798809771081
1698907595215,-99.19487229066094,-0.5344355366353997,-124.6838308871081
1698907595227,-99.18910035366092,-0.5346104737353997,-124.6882913701081
1698907595242,-99.18415095666091,-0.5350578288353998,-124.69296943410812
1698907595256,-99.17991617066092,-0.5359391215353998,-124.69743752110811
1698907595269,-99.17643063666092,-0.5369853955353998,-124.70175242710812
1698907595281,-99.17336541866092,-0.5383938605353998,-124.70556281910812
1698907595296,-99.17085986966092,-0.5399938735353998,-124.70901580110812
1698907595312,-99.16851208666093,-0.5419484885353999,-124.71177901710811
1698907595325,-99.1661525456609,-0.5440897195353999,-124.71392529910813
1698907595338,-99.1635839806609,-0.5464870565353999,-124.71522394510812
1698907595353,-99.1605804826609,-0.5490376795353998,-124.71599778340811
1698907595366,-99.1574327846609,-0.5513482095353999,-124.71672887840812
1698907595379,-99.1543248696609,-0.5525873085353998,-124.71798545040814
1698907595393,-99.15132822966088,-0.5528039235353999,-124.71994748740812
1698907595407,-99.1481613186609,-0.5520794648353998,-124.72263636640814
1698907595421,-99.1445494926609,-0.5512621190353998,-124.72555093240814
1698907595435,-99.1400783826609,-0.5512808898453998,-124.72845367540816
1698907595451,-99.1348595016609,-0.5519522735453998,-124.73086887240817
1698907595463,-99.1289375606609,-0.5531351485453998,-124.73297451240816
1698907595478,-99.1226263576609,-0.5540675257453997,-124.73496861140816
1698907595492,-99.1164366156609,-0.5540814520053997,-124.73703930540816
1698907595505,-99.1107408626609,-0.5535989867053998,-124.73894679140814
1698907595519,-99.1056764726609,-0.5527223729053997,-124.74072878740814
1698907595533,-99.1007315746609,-0.5515162279053997,-124.74255910640817
1698907595547,-99.0961561346609,-0.5506397813053997,-124.74407770540816
1698907595561,-99.0920781766609,-0.5498989683053997,-124.74535492440816
1698907595574,-99.08857360466092,-0.5495165120053997,-124.74626188970817
1698907595589,-99.08514152066093,-0.5497327497053998,-124.74683958750816
1698907595603,-99.08175387066092,-0.5504811129053998,-124.74742778210816
1698907595615,-99.07820524166092,-0.5516813339053998,-124.74797933250817
1698907595629,-99.07464421466092,-0.5529885049053997,-124.74858009780816
1698907595645,-99.07090184566091,-0.5546809119053997,-124.74924016440816
1698907595658,-99.06673103666093,-0.5564515249053997,-124.74996823760816
1698907595672,-99.06194636766092,-0.5580418839053998,-124.75081088520815
1698907595685,-99.05671793766092,-0.5592109139053998,-124.75180834800815
1698907595699,-99.05135400766092,-0.5600052648053998,-124.75270734620815
1698907595714,-99.04551826766092,-0.5609874372053998,-124.75338809010816
1698907595729,-99.03929333366092,-0.5617101077053998,-124.75385709460816
1698907595743,-99.03271432566092,-0.5624414800053997,-124.75400584940816
1698907595756,-99.02605778566092,-0.5629806051053997,-124.75400477116916
1698907595769,-99.01937461666093,-0.5634225866053997,-124.75364700826916
1698907595784,-99.01256444866092,-0.5634479770453997,-124.75289863936916
1698907595795,-99.00579651866092,-0.5629319568453998,-124.75186973836917
1698907595810,-98.99947765866094,-0.5619261298453998,-124.75044442436916
1698907595824,-98.99356764866094,-0.5604045468453998,-124.74879161536916
1698907595838,-98.98819260166094,-0.5586777998453998,-124.74692351236916
1698907595853,-98.98302128966094,-0.5568565068453998,-124.74469215336914
1698907595867,-98.97841436766096,-0.5551991598453998,-124.74218722836916
1698907595881,-98.97432463266097,-0.5534887508453998,-124.73963652336914
1698907595892,-98.97081622866096,-0.5518980158453999,-124.73687127536914
1698907595906,-98.96776271466096,-0.5501321678453999,-124.73428378136914
1698907595922,-98.96501767366097,-0.5487614888453999,-124.73178465036916
1698907595937,-98.96264327266096,-0.5476304418453999,-124.72932302236914
1698907595949,-98.96033047266096,-0.5472522645453999,-124.72694849336916
1698907595962,-98.95818098366097,-0.5475920497453999,-124.72448477336916
1698907595977,-98.95610052766096,-0.5487715287453999,-124.72203514536916
1698907595991,-98.95431265166096,-0.5503240157453999,-124.71992963736916
1698907596004,-98.95261979566096,-0.5516580017453999,-124.71819531336916
1698907596019,-98.95099019266095,-0.5526897857454,-124.71665830136916
1698907596032,-98.94914424366095,-0.5534865184454,-124.71524506036916
1698907596046,-98.94692192466096,-0.5540329181454,-124.71368136236916
1698907596059,-98.94452192866096,-0.5542547535454,-124.71179066236915
1698907596073,-98.94194098166096,-0.5541827653354,-124.70967854436915
1698907596087,-98.93913067166096,-0.5538976605354,-124.70748637936916
1698907596102,-98.93647269966095,-0.5532607042354,-124.70501664436917
1698907596117,-98.93384275966096,-0.5520884772354,-124.70248234836916
1698907596130,-98.93135223366096,-0.5506335862354,-124.69994367036918
1698907596142,-98.92939799166096,-0.5489203882354,-124.69725289636918
1698907596157,-98.92783496466096,-0.5474387132354,-124.69449211236918
1698907596170,-98.92682884366096,-0.5466510567354,-124.69158557536916
1698907596185,-98.92635870826096,-0.5461074807354,-124.68837645136918
1698907596198,-98.92644225290096,-0.5463316835354001,-124.68452132636918
1698907596212,-98.92735387150096,-0.5472736814354001,-124.67989289936918
1698907596227,-98.92905205450096,-0.5488370134354001,-124.67423292036918
1698907596240,-98.93143389550096,-0.5512595484354001,-124.66753664836918
1698907596255,-98.93451556550096,-0.5540011194354002,-124.66018722336918
1698907596268,-98.93838246050096,-0.5561880704354002,-124.65215103336918
1698907596282,-98.94275540750095,-0.5576824034354002,-124.64365132536918
1698907596296,-98.94766279150096,-0.5577026306854002,-124.63531029736916
1698907596309,-98.95272668950098,-0.5556717346854002,-124.62803156536916
1698907596322,-98.95811347150098,-0.5522030176854003,-124.62177407736915
1698907596338,-98.96326580250098,-0.5478352776854003,-124.61684138736916
1698907596352,-98.96834418950098,-0.5435634426854004,-124.61292013936917
1698907596366,-98.97341600650098,-0.5399753896854004,-124.60972282736915
1698907596378,-98.977943544501,-0.5374243186854004,-124.60724662036915
1698907596392,-98.982591270501,-0.5357310296854004,-124.60518533536916
1698907596406,-98.987436133501,-0.5346394256854005,-124.60349699736918
1698907596420,-98.992566364501,-0.5340329627854005,-124.60215107736916
1698907596435,-98.998132252501,-0.5336874214854005,-124.60113576436918
1698907596449,-99.004071911501,-0.5340274878854004,-124.60009593836918
1698907596463,-99.010632076501,-0.5349991352854004,-124.5987877003692
1698907596476,-99.017868447501,-0.5366298332854005,-124.5971238553692
1698907596491,-99.025889969501,-0.5380628772854005,-124.5955210193692
1698907596504,-99.034238276501,-0.5392423942854004,-124.59426445536918
1698907596518,-99.043257867501,-0.5398085752854005,-124.59350723746918
1698907596532,-99.052288763501,-0.5399913890854005,-124.5930562631692
1698907596548,-99.061036899501,-0.5397871139854005,-124.59303675987918
1698907596561,-99.069349908501,-0.5394039685854005,-124.59341272597918
1698907596575,-99.076719033501,-0.5389807182854005,-124.59440062867918
1698907596588,-99.083509038501,-0.5382912006854005,-124.59603435667918
1698907596602,-99.089527213501,-0.5375532843854005,-124.59844083467918
1698907596616,-99.094746057501,-0.5367040333854005,-124.60166875467918
1698907596630,-99.098989628501,-0.5361568504854005,-124.6055301316792
1698907596644,-99.102296611501,-0.5357511346854005,-124.61009024367918
1698907596659,-99.105158865501,-0.5350915902854004,-124.6152974916792
1698907596672,-99.107504963501,-0.5348931309854005,-124.6207860936792
1698907596686,-99.109626587501,-0.5346051751854005,-124.6266601036792
1698907596700,-99.111254947501,-0.5342201512854006,-124.6328569286792
1698907596714,-99.112977839501,-0.5338922706854006,-124.6390909976792
1698907596728,-99.114798448501,-0.5338581447554006,-124.6454282586792
1698907596742,-99.116559027501,-0.5340236504554006,-124.6517868516792
1698907596756,-99.118341761501,-0.5342397958554006,-124.6580611876792
1698907596770,-99.119983290501,-0.5347706526554006,-124.6642194626792
1698907596784,-99.121793288501,-0.5353479942554006,-124.6702028616792
1698907596798,-99.123585285501,-0.5356537987554005,-124.6761142386792
1698907596812,-99.125189300501,-0.5357128453054005,-124.6818364126792
1698907596825,-99.126655066501,-0.5355360362054006,-124.6873228886792
1698907596839,-99.127883491501,-0.5353672751054006,-124.6926288586792
1698907596853,-99.129013100501,-0.5350661533054006,-124.6975676876792
1698907596867,-99.129867670501,-0.5347936212054006,-124.7021902796792
1698907596881,-99.130622309001,-0.5342512739054006,-124.7064091696792
1698907596895,-99.130904758501,-0.5337377407054006,-124.7103143516792
1698907596908,-99.131040251001,-0.5326629817054006,-124.7141279236792
1698907596922,-99.130912078301,-0.5313474797054006,-124.7177344586792
1698907596936,-99.130567056701,-0.5296408567054006,-124.7211475626792
