time,acceleration_x,acceleration_y,acceleration_z
1703230277757,-0.01285957,0.03206445,0.01742808
1703230277769,-0.03212954,0.05222257,0.04107963
1703230277783,-0.05273356,0.06861636,0.06289502
1703230277803,-0.07706871,0.08072843,0.08251878
1703230277821,-0.1057416499999999,0.090381136,0.10230477
1703230277841,-0.1375509899999999,0.095780789,0.12291659
1703230277857,-0.1707413699999999,0.097430564,0.14400299
1703230277874,-0.2053684099999999,0.0973100986,0.1646548099999999
1703230277891,-0.2409472199999999,0.0987146606,0.18480343
1703230277908,-0.27560353,0.1036799616,0.20499651
1703230277925,-0.30707605,0.1107476196,0.22431085
1703230277941,-0.33429017,0.1188836846,0.24256165
1703230277956,-0.35746275,0.1282185976,0.26075849
1703230277972,-0.37622996,0.1428748076,0.28025302
1703230277986,-0.3908428499999999,0.1649629876,0.30273602
1703230278001,-0.4018542499999999,0.1936778576,0.32832633
1703230278016,-0.409178014,0.2261176076,0.35522233
1703230278031,-0.41334484,0.2591406576,0.3816176999999999
1703230278044,-0.415013856,0.2900362476,0.4062639499999999
1703230278059,-0.4144117685,0.3167213176,0.4290661299999999
1703230278074,-0.4118990895,0.3376622476,0.4507476599999999
1703230278087,-0.4078974715,0.3517738476,0.4721448499999999
1703230278102,-0.4031314975,0.3587156086,0.4933808399999999
1703230278116,-0.3976128295,0.3575483576,0.5140901699999999
1703230278130,-0.3909316164999999,0.3469694976,0.5338172299999999
1703230278144,-0.3834484554999999,0.3280006276,0.5525907099999999
1703230278157,-0.3754444034999999,0.3024756376,0.5712501499999999
1703230278172,-0.3673039655,0.2724378876,0.5914164099999999
1703230278186,-0.3579564405,0.2394036676,0.6141972099999999
1703230278200,-0.3470099505,0.2062690976,0.6388820199999999
1703230278215,-0.3335575404999999,0.1769465676,0.66552916
1703230278228,-0.3177317305,0.1532857576,0.6941746
1703230278242,-0.3001840604999999,0.1352438376,0.72406439
1703230278256,-0.2810200504999999,0.1208608076,0.75389982
1703230278271,-0.2600378404999999,0.1085431976,0.78226452
1703230278284,-0.2379767804999999,0.0982585876,0.8087046800000001
1703230278291,-0.2155736504999999,0.0887847896,0.8346118
1703230278306,-0.1921590104999999,0.0800489096,0.85936987
1703230278318,-0.1678642504999999,0.0725764646,0.88261658
1703230278333,-0.1424865604999999,0.0671878186,0.90514651
1703230278347,-0.1157756304999999,0.0649567296,0.928274
1703230278361,-0.0873525004999999,0.0664978326,0.95252385
1703230278374,-0.0573820304999999,0.0709770426,0.97721504
1703230278388,-0.0270036204999999,0.0766580356,1.00191203
1703230278402,0.0041308395,0.0812423196,1.02593043
1703230278416,0.0375388895,0.0851807286,1.04881043
1703230278430,0.0746126895,0.0880000306,1.07118313
1703230278444,0.1164687095,0.0897587916,1.09417767
1703230278457,0.1627115895,0.0891412977,1.11770499
1703230278471,0.2114435495,0.0851861107,1.14065648
1703230278485,0.2634998495,0.0798731997,1.1614912000000002
1703230278499,0.3215839995,0.0768206507,1.1809478100000002
1703230278512,0.3881763095,0.0814809547,1.2011334100000002
1703230278526,0.4616457095,0.0999619947,1.22383991
1703230278540,0.5407190795000001,0.1346636647,1.25082357
1703230278553,0.6226409095000001,0.1814125747,1.28052015
1703230278567,0.7062015095,0.2344824447,1.31083239
1703230278581,0.7893300695000001,0.2888780247,1.34117095
1703230278596,0.8694253195000001,0.3409066947,1.3725796
1703230278610,0.9421181595,0.3889260547,1.40516841
1703230278623,1.0045460095,0.4299237847,1.43876034
1703230278637,1.0556089995,0.4610534847,1.47356017
1703230278651,1.0956900895,0.4822440347,1.51011592
1703230278665,1.1256037995,0.4949212347,1.5507045000000002
1703230278679,1.1478809995,0.5020230997,1.5973961200000002
1703230278693,1.1636106494999998,0.5045358097,1.6508775800000002
1703230278707,1.1735771704999998,0.5027036617,1.71061052
1703230278720,1.1777908594999995,0.4969435937,1.7737680000000002
1703230278735,1.1769015693999998,0.4866033737,1.83975574
1703230278749,1.1717249803999998,0.4707987637,1.9082658500000005
1703230278763,1.1634664084,0.4496030837,1.9790515100000003
1703230278777,1.1524330483999998,0.4230785937,2.0512095400000003
1703230278790,1.1390628983999995,0.3943306637,2.1235242700000003
1703230278804,1.1238214683999996,0.3656060037,2.1958528000000004
1703230278818,1.1075184083999996,0.3397632237,2.2680123000000005
1703230278833,1.0903211583999997,0.3180664337,2.3399026400000005
1703230278846,1.0726467983999997,0.3014329737,2.4117039000000005
1703230278860,1.0551654483999997,0.2900957137,2.4835673400000005
1703230278874,1.0381390683999998,0.2838050547,2.5547717700000003
1703230278888,1.0206391184,0.2824858307,2.6239295100000004
1703230278902,1.0019934584,0.2871383577,2.6905718500000004
1703230278916,0.9816258484,0.2975156977,2.7553655000000004
1703230278930,0.9592275884,0.3131212877,2.8193951800000003
1703230278944,0.9349523883999998,0.3323989377,2.8834326000000003
1703230278957,0.9086379983999998,0.3533234277,2.94719471
1703230278972,0.8796361783999999,0.3740526077,3.0100819000000003
1703230278986,0.8487444283999999,0.3958877577,3.0719550200000003
1703230278999,0.8180633283999998,0.4212811477000001,3.13278843
1703230279013,0.7897658683999998,0.4492246977,3.1917985
1703230279027,0.7644320983999998,0.4775762977,3.24755756
1703230279041,0.7419374183999998,0.5038996277000001,3.29822439
1703230279055,0.7220464883999999,0.5258393277000001,3.3429848900000003
1703230279070,0.7043610383999999,0.5432074677000001,3.3826750600000004
1703230279084,0.6893151783999999,0.5565093977000001,3.4179267400000004
1703230279097,0.6761728083999999,0.5672945577,3.4497775300000004
1703230279111,0.6643674683999999,0.5758517227000001,3.4789142800000006
1703230279125,0.6531408583999999,0.5809611837,3.5053963500000007
1703230279139,0.6422704283999999,0.580851922,3.529313980000001
1703230279153,0.6317895683999999,0.574363944,3.551698450000001
1703230279167,0.6215708383999999,0.560463284,3.573291410000001
1703230279181,0.6110652684,0.539995564,3.594169200000001
1703230279195,0.6002126583999999,0.5118241640000001,3.614187240000001
1703230279209,0.5897281184,0.4741979340000001,3.632004580000001
1703230279224,0.5806149514,0.4262806240000001,3.646431210000001
1703230279237,0.5723825873999999,0.3672979040000001,3.655763894000001
1703230279251,0.5652372883999999,0.2991780840000001,3.660021066000001
1703230279266,0.5596242993999999,0.2227265940000001,3.659276850700001
1703230279279,0.5556219093999999,0.1418820040000001,3.653937296700001
1703230279293,0.5530978104,0.0593101440000001,3.645790108700001
1703230279307,0.5515662833999999,-0.0232139959999998,3.637779158700001
1703230279321,0.5507652616,-0.1037801759999998,3.632374380700001
1703230279335,0.5507219959299999,-0.1809238859999998,3.6311276877000007
1703230279349,0.55156910993,-0.2560670859999998,3.633017433700001
1703230279363,0.5520224256299999,-0.3309022459999998,3.6348460477
1703230279377,0.5515306260299999,-0.4090482659999998,3.632396548700001
1703230279391,0.5507176168299999,-0.4934767559999998,3.6223604687000006
1703230279405,0.5505620203299999,-0.5855751259999998,3.603795888700001
1703230279419,0.5512888049299999,-0.6863521259999998,3.5774327187000003
1703230279433,0.5531814549299999,-0.7970985259999999,3.5441087687
1703230279447,0.5554726409299999,-0.914285726,3.5028133687
1703230279463,0.55836506393,-1.027028426,3.4527562387
1703230279476,0.56340509893,-1.126190346,3.3983476287000003
1703230279490,0.57168645693,-1.206184406,3.3462542187000004
1703230279503,0.58368616693,-1.263013406,3.2995770887000004
1703230279517,0.59883177693,-1.299715816,3.2569578087000006
1703230279531,0.61641218693,-1.321845356,3.213646218700001
1703230279545,0.63517916693,-1.3364015559999998,3.1640653187000005
1703230279559,0.65416480693,-1.3486130759999997,3.1054547487000006
1703230279574,0.67280378693,-1.3621786459999996,3.0378423287000005
1703230279587,0.6915327769299999,-1.3783403859999996,2.9643394887000003
1703230279601,0.7114232269299999,-1.3972570659999997,2.8894199687000004
1703230279616,0.73280975693,-1.4193487359999997,2.8165123587000003
1703230279629,0.7551345669299999,-1.4465149659999996,2.7465702887
1703230279643,0.77796485693,-1.4815504759999996,2.6779422687000003
1703230279657,0.8015373769299999,-1.5257193159999995,2.6079691687000004
1703230279671,0.8259076969299999,-1.5793664059999994,2.534957528700001
1703230279685,0.8512110069299998,-1.6370993059999994,2.4581764187000004
1703230279700,0.8770083569299999,-1.6939498259999994,2.380500408700001
1703230279713,0.90425460693,-1.7460318159999997,2.3059294387000007
1703230279727,0.93334565693,-1.7898368059999994,2.2374579587000007
1703230279741,0.96427201693,-1.825386656,2.1757716087000007
1703230279755,0.99636041693,-1.852753136,2.118353488700001
1703230279769,1.02868489693,-1.872216686,2.059993628700001
1703230279783,1.05997217693,-1.883844756,1.998519468700001
1703230279797,1.09045849693,-1.887513196,1.935844308700001
1703230279811,1.12073115693,-1.882184469,1.874835868700001
1703230279824,1.15142445693,-1.867800149,1.817644358700001
1703230279839,1.18248404693,-1.8465778189999995,1.764831828700001
1703230279853,1.21338248693,-1.8212121789999995,1.7153587987000012
1703230279866,1.24347124693,-1.7946606289999991,1.6680137587000012
1703230279880,1.27200568693,-1.7699950989999993,1.6215123487000012
1703230279895,1.29814121693,-1.7494098189999994,1.5752494987000012
1703230279909,1.32156625693,-1.733974738999999,1.529284398700001
1703230279922,1.34228854693,-1.7242315629999994,1.483986398700001
1703230279936,1.3608122669299998,-1.7184346659999994,1.440647148700001
1703230279950,1.3776503769299997,-1.7140277369999994,1.401003138700001
1703230279964,1.3931626769299996,-1.7090570609999995,1.3666254487000011
1703230279978,1.4081069169299996,-1.7027028989999995,1.3389720887000012
1703230279992,1.4228890969299997,-1.6950778279999994,1.3169466387000013
1703230280007,1.4371303469299996,-1.6873904159999995,1.2983344487000013
1703230280020,1.4506429969299997,-1.6800161389999997,1.2810499087000011
1703230280033,1.4636988869299996,-1.6734242749999997,1.2644754187000014
1703230280048,1.4769672269299996,-1.6671793429999997,1.2505729287000014
1703230280061,1.4905967969299996,-1.6612214759999997,1.2410879687000014
1703230280075,1.5050832169299997,-1.6550038249999994,1.2367698837000014
1703230280090,1.5200017169299995,-1.649264500999999,1.2361226611000014
1703230280103,1.5345425169299998,-1.6454406349999993,1.2365238488000014
1703230280118,1.54824053693,-1.6437550419999991,1.2354777838000015
1703230280131,1.56054453693,-1.6431933432999994,1.2322778648000017
1703230280144,1.57163813693,-1.6414894502999997,1.2283541408000014
1703230280159,1.58209958693,-1.6372171312999997,1.2261002048000014
1703230280173,1.5920160419299998,-1.6298700182999994,1.2266850782000014
1703230280187,1.6015899349299998,-1.6197545182999995,1.2296679382000013
1703230280200,1.6108267089299997,-1.6076507682999994,1.2338448482000013
1703230280215,1.6195027739299996,-1.5944383582999997,1.2374198792000013
1703230280228,1.6272747419299995,-1.5808584382999995,1.2393158372000013
1703230280243,1.6347643269299996,-1.5672374182999995,1.2399026549000012
1703230280256,1.6427055949299996,-1.5532251782999995,1.240119040500001
1703230280270,1.6515020569299996,-1.5375546282999994,1.2413671715000012
1703230280284,1.6616188069299995,-1.5193829582999994,1.245360874500001
1703230280298,1.6717501969299997,-1.4992270182999994,1.252669089500001
1703230280312,1.6814925649299994,-1.4782084382999994,1.262920289500001
1703230280326,1.6892683629299994,-1.4576465282999993,1.275255019500001
1703230280340,1.6946272049299993,-1.4391987582999992,1.2881978395000009
1703230280354,1.6968155989299991,-1.4240418682999991,1.301032679500001
1703230280368,1.6955289869299994,-1.4119968482999992,1.3137280695000009
1703230280382,1.6913343399299994,-1.402284087299999,1.3275057495000009
1703230280396,1.6846879469299991,-1.3942492192999991,1.344270139500001
1703230280409,1.6762864419299994,-1.3869259032999992,1.365485379500001
1703230280423,1.6669069589299994,-1.380249490299999,1.391981699500001
1703230280437,1.6572396869299997,-1.374903495299999,1.4234166895000009
1703230280451,1.6474724899299995,-1.371838232299999,1.4588982695000008
1703230280465,1.6374376699299995,-1.371480387299999,1.4969603195000007
1703230280479,1.6265952299299995,-1.373603397299999,1.5360249395000007
1703230280493,1.6143328299299995,-1.377678484299999,1.5753138595000007
1703230280507,1.6008352299299995,-1.383175202299999,1.6146560695000007
1703230280521,1.5867508399299994,-1.389055732299999,1.6537967595000007
1703230280535,1.5725136799299997,-1.395006243299999,1.6930374295000008
1703230280549,1.5584297099299995,-1.400500685299999,1.7327436295000007
1703230280563,1.5442665399299995,-1.4045762492999991,1.7732819695000006
1703230280576,1.5294037999299994,-1.407003104299999,1.8143570395000008
1703230280590,1.5133836599299997,-1.408202121299999,1.8550018295000008
1703230280604,1.4963330499299994,-1.4087552018999991,1.8943015995000003
1703230280618,1.4779532999299994,-1.4083967008999991,1.9317063695000003
1703230280632,1.4587474399299991,-1.4071588258999992,1.9667629195000005
1703230280646,1.4386974499299994,-1.404635092899999,1.9995242695000004
1703230280660,1.4184396799299994,-1.3987002848999992,2.0303783695000006
1703230280674,1.3983964299299994,-1.3891617388999993,2.059503929500001
1703230280688,1.3784763899299994,-1.3757462688999993,2.086564509500001
1703230280702,1.3593402699299997,-1.3589902788999992,2.111551389500001
1703230280717,1.3409889899299994,-1.3383320788999993,2.134527589500001
1703230280729,1.3237086499299997,-1.3143351988999992,2.1556395595000013
1703230280743,1.3069555999299995,-1.287762768899999,2.174641439500001
1703230280757,1.2913286499299996,-1.2589394188999992,2.191542319500001
1703230280771,1.2770525099299996,-1.2269909888999992,2.206848899500001
1703230280785,1.2641432999299995,-1.1916354588999991,2.221135509500001
1703230280800,1.2522780599299996,-1.1538077788999994,2.234292809500001
1703230280813,1.2411775199299997,-1.1155314788999997,2.245278229500001
1703230280827,1.2310273899299995,-1.0793443688999995,2.2525370235000013
1703230280841,1.2214425379299998,-1.0465402388999996,2.253382928700001
1703230280856,1.2125099649299995,-1.0148978488999996,2.247309372700001
1703230280870,1.2053030619299998,-0.9817296888999996,2.236246822700001
1703230280882,1.2000944919299998,-0.9452894588999996,2.223258852700001
1703230280897,1.19714437193,-0.9057157488999996,2.2101339327000007
1703230280910,1.19672625463,-0.8638621688999997,2.197026072700001
1703230280924,1.19857566863,-0.8192666588999997,2.1836439427000007
1703230280939,1.20252750163,-0.7711459088999997,2.1700771627000006
1703230280953,1.2078096486299998,-0.7160990788999997,2.1558417127000005
1703230280967,1.21393671163,-0.6479848488999997,2.1404342627000004
1703230280980,1.22050437863,-0.5667211788999997,2.1236773827000004
1703230280994,1.22690841563,-0.4754442488999997,2.1036861127000006
1703230281008,1.2336451456300002,-0.3783059488999997,2.0783307727000007
1703230281022,1.2408253696300002,-0.2788114188999997,2.0487786927000005
1703230281036,1.24918918563,-0.1779060188999997,2.0171291527000004
1703230281050,1.25892330163,-0.0759299188999997,1.9852420327000004
1703230281064,1.27017769163,0.0241855811000002,1.9529473727000004
1703230281078,1.28161404163,0.1186560411000002,1.9189316127000005
1703230281091,1.29277760163,0.2036737211000003,1.8810195727000003
1703230281106,1.3029232216300002,0.2783452311000003,1.8378078327000005
1703230281119,1.31155485063,0.3440145611000003,1.7903309927000004
1703230281134,1.31862340463,0.4016201811000003,1.7413215827000004
1703230281147,1.32466402663,0.4525601811000003,1.6933693227000004
1703230281162,1.32995950063,0.4967485211000003,1.6483965627000003
1703230281175,1.33532071463,0.5341668311000003,1.6071574827000004
1703230281189,1.34076270663,0.5680419711000003,1.5695074227000003
1703230281203,1.34594083963,0.6022745811000003,1.5361751027000003
1703230281217,1.35044017163,0.6386946811000003,1.5070462827000004
1703230281232,1.35404158363,0.6758977811000003,1.4805538627000003
1703230281245,1.35645670563,0.7108142211000004,1.4537025527000005
1703230281259,1.35814042463,0.7405394711000004,1.4244128327000003
1703230281272,1.35904344343,0.7653900211000004,1.3927396427000005
1703230281287,1.3590353325420002,0.7895749511000004,1.3597164927000005
1703230281300,1.3583125480420002,0.8151997611000005,1.3271467727000004
1703230281314,1.3566195560420002,0.8421415411000005,1.2957305727000004
1703230281328,1.3544442340420002,0.8693461811000005,1.2651214227000005
1703230281342,1.3517657080420002,0.8954822211000005,1.2346553127000002
1703230281355,1.3483749990420002,0.9188935311000004,1.2041801427
1703230281370,1.3446919730420002,0.9386210611000004,1.1746007927000002
1703230281384,1.3410453110420002,0.9581328711000006,1.1474569927000002
1703230281398,1.3366309530420002,0.9785163911000004,1.1230070227000002
1703230281412,1.331062864042,0.9970349811000006,1.0993231227000002
1703230281425,1.3243020340420002,1.0112632311000005,1.0730570927000005
1703230281439,1.3159291700420002,1.0200159631000003,1.0438502727000003
1703230281454,1.3054435600420002,1.0259536731000003,1.0118041227000003
1703230281468,1.2951758600420002,1.0349909001000006,0.9809825527000005
1703230281481,1.2873520470420003,1.0534832301000006,0.9568437327000004
1703230281496,1.2820636500420004,1.0829801601000006,0.9418754227000004
1703230281509,1.2775741560420004,1.1173504301000006,0.9318857177000004
1703230281522,1.2715599490420004,1.1487061501000009,0.9201366377000004
1703230281536,1.2637159440420005,1.1711141501000006,0.9045711977000004
1703230281551,1.2542324830420004,1.1844036201000006,0.8851444677000004
1703230281565,1.2433923430420004,1.1906146481000006,0.8623153977000004
1703230281579,1.2306220330420004,1.1899892804000003,0.8367725377000004
1703230281592,1.2167454130420003,1.1849053184000005,0.8121136377000003
1703230281606,1.2034187330420003,1.1791622944000004,0.7926895077000004
1703230281620,1.1914921730420005,1.1778995934000005,0.7807314577000003
1703230281634,1.1798603630420004,1.1810704424000005,0.7746337237000003
1703230281648,1.1675122830420004,1.1836665664000006,0.7714913857000003
1703230281662,1.1539957530420004,1.1824719144000009,0.7682763897000003
1703230281675,1.1390064530420003,1.1765276504000006,0.7625689617000003
1703230281689,1.1230973330420002,1.1661878304000006,0.7550353627000004
1703230281703,1.1059891930420005,1.1545051904000003,0.7473181157000004
1703230281717,1.0879345630420003,1.1441170504000004,0.7413405737000004
1703230281732,1.0695157030420004,1.1373252954000004,0.7377154027000004
1703230281745,1.0506357830420003,1.1338979834000005,0.7357059207000004
1703230281759,1.0312296730420003,1.1322907424000004,0.7336959567000004
1703230281773,1.0113037930420004,1.1311732544000004,0.7303114957000004
1703230281787,0.9915876930420005,1.1302132089000003,0.7257605787000004
1703230281801,0.9726014230420004,1.1312250999000004,0.7216364627000005
1703230281815,0.9548140830420004,1.1353691209000003,0.7194052377000005
1703230281829,0.9386533230420004,1.1433813259000003,0.7186517735000005
1703230281842,0.9241814630420004,1.1537908859000006,0.7190568280000005
1703230281856,0.9110796930420004,1.1646463959000006,0.7197024711000005
1703230281871,0.8994063830420003,1.1737977549000007,0.7204873392000005
1703230281886,0.8889137930420002,1.1805181809000007,0.7208993076000005
1703230281898,0.8796480370420002,1.1844335209000008,0.7211301583000005
1703230281912,0.8709869160420002,1.1873157359000008,0.7211895764500005
1703230281925,0.8626425990420001,1.191115191900001,0.7215008237500005
1703230281940,0.8552459620420001,1.195809653900001,0.7221053373500005
1703230281953,0.8487196320420001,1.200889134900001,0.7229493554500005
1703230281968,0.8426413750420001,1.204968516900001,0.7237444256500005
1703230281982,0.8373114930420001,1.2078017989000012,0.7249587906500006
1703230281995,0.8329484850420001,1.2103432719000011,0.7267976826500006
1703230282009,0.8295814360420002,1.2137260109000012,0.7291573526500006
1703230282023,0.8266137330420001,1.2179516889000013,0.7321669176500006
1703230282037,0.8237664110420001,1.2224398729000012,0.7356506116500007
1703230282051,0.8209180810420001,1.2259640229000013,0.7394201196500007
1703230282065,0.8177731190420001,1.2279568889000012,0.7436832186500006
1703230282079,0.8138611790420002,1.2284726300000013,0.7491475946500007
1703230282093,0.8087048100420001,1.2282698935000014,0.7557816486500006
1703230282107,0.8022712310420002,1.2282319589300017,0.7636089976500007
1703230282122,0.7952061050420002,1.2286933214300015,0.7720352346500007
1703230282134,0.7879771160420002,1.2296690316300016,0.7803178516500007
1703230282148,0.7798826720420001,1.2301248944300016,0.7885892066500007
1703230282162,0.7709020530420001,1.2306220009300015,0.7975604446500006
1703230282176,0.761566070042,1.2315524475300017,0.8075937646500007
1703230282189,0.7522154620420001,1.2337086725300015,0.8188444946500006
1703230282204,0.743027758042,1.2385404535300015,0.8319199846500006
1703230282218,0.733774493042,1.2453454895300016,0.8465886946500006
1703230282232,0.724297373042,1.2522428795300016,0.8621434146500007
1703230282246,0.714076603042,1.2578992395300015,0.8773400946500006
1703230282260,0.703507343042,1.2611981545300015,0.8914531746500006
1703230282274,0.6926377130420001,1.2633172895300016,0.9048509646500006
1703230282288,0.6818696330420001,1.2661734355300016,0.9179848646500006
1703230282301,0.671254873042,1.2710304755300017,0.9311411446500006
1703230282315,0.660916063042,1.2772125485300017,0.9438301246500006
1703230282329,0.651087374042,1.2834016375300017,0.9554681046500006
1703230282343,0.642142167042,1.2886724195300017,0.9662009046500006
1703230282358,0.634441798042,1.2925968635300016,0.9761136156500008
1703230282371,0.627678077042,1.2957884585300017,0.9856158806500006
1703230282385,0.621803235042,1.2989870895300015,0.9947094456500006
1703230282399,0.616659316042,1.3023491025300018,1.0030356176500006
1703230282412,0.611901462042,1.3053373135300017,1.0105166586500005
1703230282426,0.6074282270420001,1.3081624435300017,1.0176842436500004
1703230282441,0.6034946900420001,1.3106118955300017,1.0250481146500003
1703230282454,0.5995504010420001,1.3122667255300018,1.0330918856500004
1703230282468,0.5958833430420001,1.3130800910300018,1.0419064316500004
1703230282482,0.5924787820420001,1.313702356230002,1.0513299626500003
1703230282496,0.5893762360420001,1.3138104365300018,1.0611483866500004
1703230282509,0.586204509042,1.313000126130002,1.0710103156500004
1703230282523,0.583135146042,1.310580355130002,1.0798795056500003
1703230282537,0.580471253042,1.305913140130002,1.0872179856500004
1703230282552,0.5790551890419999,1.299440038130002,1.0934334946500004
1703230282565,0.579113888322,1.293404754130002,1.0988121946500005
1703230282579,0.5807119603219999,1.290467928130002,1.1043360636500004
1703230282594,0.5839406133219999,1.290897074330002,1.1106073346500005
1703230282607,0.5883675253219999,1.293474254330002,1.1173496206500002
1703230282621,0.5934235013219998,1.296312344330002,1.1235923236500005
1703230282635,0.5989832983219998,1.297816352330002,1.1290766306500002
1703230282648,0.6047669913219998,1.297512689230002,1.1337687896500002
1703230282663,0.6098924673219999,1.294845543230002,1.1381993646500002
1703230282676,0.6139908423219999,1.289949619230002,1.14321386165
1703230282690,0.6175829323219999,1.283875093230002,1.14904907265
1703230282704,0.6206758323219999,1.276917353230002,1.15539749865
1703230282718,0.6231727203219999,1.268421129230002,1.16182233365
1703230282732,0.6254611833219998,1.257878389230002,1.16801668765
1703230282746,0.6277895333219998,1.245332769230002,1.17416385265
1703230282760,0.6304169053219998,1.231393599230002,1.18062065765
1703230282774,0.6337768783219998,1.218025269230002,1.18764102365
1703230282787,0.6372518793219998,1.206304149230002,1.1951559426499998
1703230282802,0.6404984323219998,1.195940259230002,1.2023353686499998
1703230282815,0.6435550903219998,1.1863564382300018,1.2087634766499995
1703230282830,0.6462275303219998,1.1776841582300015,1.2141533616499998
1703230282843,0.6484764693219998,1.1697827122300015,1.2188517326499997
1703230282857,0.6503314773219998,1.1636597842300018,1.2236754186499996
1703230282871,0.6522995673219998,1.159963510230002,1.2289534686499997
1703230282885,0.6542415893219998,1.159673209030002,1.2344773216499996
1703230282900,0.6563534393219999,1.162785077030002,1.2397636866499997
1703230282913,0.6586478443219999,1.168149589030002,1.2444568356499994
1703230282927,0.6613787363219998,1.174706660030002,1.248466017649999
1703230282940,0.6648946613219998,1.180927635030002,1.2517105796499992
1703230282955,0.6695563673219999,1.185967009030002,1.2544142286499993
1703230282969,0.6756016743219999,1.188991326030002,1.2565165616499994
1703230282983,0.6826757713219999,1.189741899030002,1.2581393396499994
1703230282997,0.6906154093219998,1.187858700030002,1.2591595856499993
1703230283010,0.6995086553219998,1.183936262030002,1.2598823552499994
1703230283024,0.7088700013219998,1.177792983030002,1.2600925102499994
1703230283038,0.7188641493219998,1.169700568030002,1.2594485339499994
1703230283052,0.7288314503219998,1.160164996030002,1.2575652419499994
1703230283066,0.7386519113219998,1.150156786030002,1.2545962509499995
1703230283079,0.7487744813219999,1.141687707030002,1.2515659059499995
1703230283093,0.7590381313219998,1.136031178030002,1.2494496689499994
1703230283107,0.7697908313219998,1.133025642030002,1.2481893559499997
1703230283121,0.7804956113219997,1.131224176030002,1.2468430479499997
1703230283136,0.7904408993219998,1.129835731030002,1.2444429649499995
1703230283149,0.7994288673219998,1.128307547030002,1.2407177929499995
1703230283163,0.8080716753219997,1.1270391120300018,1.2362058599499994
1703230283177,0.8168059253219998,1.1272164964300018,1.2317388099499995
1703230283191,0.8260484383219998,1.1293996104300017,1.2280063019499996
1703230283205,0.8355888703219998,1.1328712364300018,1.2248092469499996
1703230283219,0.8451290533219998,1.1364164384300015,1.2214138849499996
1703230283233,0.8544689293219998,1.1394975184300018,1.2175004459499996
1703230283246,0.8637968433219998,1.1419820654300017,1.2134485319499997
1703230283260,0.8732649643219998,1.1442051884300015,1.2102581549499998
1703230283274,0.8829712443219998,1.1476207324300018,1.20864130895
1703230283288,0.8931361843219998,1.1519881374300018,1.20850465175
1703230283302,0.9034486343219998,1.1564324734300018,1.20898326515
1703230283315,0.913907284322,1.159521226430002,1.20893917005
1703230283330,0.924348234322,1.160076240030002,1.20742550705
1703230283343,0.9345523643219998,1.158365871030002,1.20414573205
1703230283357,0.9446490743219998,1.155834884030002,1.19934937305
1703230283372,0.9548007943219998,1.154354711030002,1.19389315105
1703230283385,0.9650562943219998,1.155280040430002,1.18861804605
1703230283399,0.9754716643219998,1.158208607430002,1.18396951605
1703230283413,0.985739394322,1.162274526430002,1.17982580805
1703230283427,0.995526094322,1.166125835430002,1.17576044505
1703230283441,1.004791735322,1.1686754114300022,1.17138334905
1703230283455,1.0137598323219998,1.169336643930002,1.16652978605
1703230283469,1.022317124322,1.167963613930002,1.16150422605
1703230283482,1.030199131322,1.165325211930002,1.15619168405
1703230283497,1.037711951322,1.1625330109300018,1.15129734805
1703230283510,1.045050632322,1.1605172809300015,1.14691856605
1703230283524,1.052270498322,1.1586259369300018,1.1427653350499998
1703230283538,1.058970613322,1.1562471579300018,1.1389769470499995
1703230283552,1.065375815322,1.1533058289300018,1.1355847270499997
1703230283566,1.071429911322,1.1495976409300015,1.1324441160499996
1703230283580,1.077131545322,1.1461199289300017,1.1295754500499997
1703230283594,1.082391016322,1.1430190309300017,1.1269726040499997
1703230283608,1.087177206322,1.1404665149300015,1.1242558370499998
1703230283621,1.091407727322,1.1378905129300017,1.12090989805
1703230283636,1.095245518322,1.1348370639300016,1.1166866520499998
1703230283649,1.098819417322,1.1313798569300015,1.1119635200499998
1703230283664,1.102167350322,1.1281785869300016,1.1075340540499998
1703230283677,1.105719508322,1.1260265469300017,1.10385180205
1703230283691,1.1092886233219998,1.1250719833300018,1.10131678505
1703230283705,1.1126591983219998,1.1240617793300018,1.0991869850499998
1703230283718,1.1160444783219998,1.121823844330002,1.09674030905
1703230283733,1.1189890353219998,1.1173794393300018,1.09311341505
1703230283746,1.1217000443219998,1.111285108330002,1.08816220505
1703230283760,1.124462529322,1.104936520330002,1.08236149905
1703230283774,1.1279481813219998,1.100178182330002,1.07678455305
1703230283788,1.132257460322,1.0973759153300018,1.07185844905
1703230283802,1.137556093322,1.0961477423300017,1.06765972605
1703230283816,1.1433977203219998,1.0957116779300016,1.06385943205
1703230283830,1.149687695322,1.0951379014300016,1.0600646740500002
1703230283845,1.1558001683219998,1.0943111024300016,1.05614441205
1703230283857,1.161549445322,1.0934235608300016,1.0522014080500002
1703230283871,1.1674011983219998,1.0932397093300017,1.0485096020500002
1703230283887,1.1734471813219998,1.0937840747300014,1.04526650005
1703230283900,1.1796994993219998,1.0944549126300014,1.04244656705
1703230283913,1.1859552513219995,1.0953137610300014,1.04007300505
1703230283927,1.1925063023219995,1.0954551389300011,1.03783849205
1703230283941,1.1990258253219996,1.0943341049300013,1.0359372970499998
1703230283955,1.2052051943219997,1.0931980189300012,1.0345785000499998
1703230283969,1.2111753723219998,1.0919680479300011,1.0339113481499995
1703230283983,1.216831393322,1.0899120469300012,1.0336174357499996
1703230283997,1.221936395322,1.0865824019300012,1.0331239435499997
1703230284010,1.226851786322,1.0820506669300012,1.0317968595499998
1703230284023,1.231249428322,1.0763897769300013,1.02914413455
1703230284038,1.235090326322,1.0708820379300013,1.02546723855
1703230284052,1.238468811322,1.0665242729300013,1.0209929325499998
1703230284065,1.241804770322,1.0640242119300012,1.0163416185499998
1703230284080,1.245126732322,1.0633844445300011,1.01201019055
1703230284093,1.248299224322,1.063914165930001,1.0080608675499998
1703230284107,1.251136761322,1.0644478601300011,1.00418206155
1703230284121,1.2533065883219998,1.0641339595300012,1.00033202555
1703230284135,1.2550321793219998,1.0623736635300012,0.99639715955
1703230284149,1.2565583673219998,1.0593756565300012,0.99222523955
1703230284163,1.2577604783219998,1.0567092115300012,0.98800210555
1703230284177,1.2585657852219998,1.0559223419300012,0.98424610655
1703230284191,1.259190446822,1.0565374131300012,0.98079764955
1703230284205,1.259960458122,1.0582286461300012,0.97739970655
1703230284219,1.2607011339219998,1.0602272421300012,0.97393332755
1703230284233,1.2612110549219997,1.0621747771300012,0.97065031755
1703230284246,1.2617770454219996,1.0641365061300012,0.96781806455
1703230284260,1.2627227463219997,1.0663835011300011,0.96528349155
1703230284275,1.2638354793219997,1.068741083130001,0.96272898855
1703230284288,1.2650382813219996,1.071091419130001,0.96002175055
1703230284302,1.2661444143219995,1.0736015601300009,0.95737856055
1703230284316,1.2672400693219996,1.075575516130001,0.95479761155
1703230284330,1.2686004583219996,1.076724674130001,0.9524504135499998
1703230284343,1.2699939993219995,1.0774941130300009,0.9507328025499998
1703230284357,1.2715210483219996,1.0784664838300009,0.9497431521499998
1703230284371,1.2727078243219996,1.079619715830001,0.94953964605
1703230284385,1.2739110643219995,1.0804752966300009,0.9495162111799998
1703230284399,1.2747440413219997,1.080338475030001,0.9489851014799998
1703230284413,1.2754155603219994,1.0786006810300008,0.9473892504799998
1703230284427,1.2760328939219994,1.075359873030001,0.9446315214799996
1703230284441,1.2766617838219994,1.0716156250300009,0.9409518114799996
1703230284456,1.2776750878219991,1.069149729030001,0.9371411334799996
1703230284470,1.2793544218219994,1.069105930620001,0.9336827354799996
1703230284482,1.2815341358219994,1.071681429620001,0.9309779474799996
1703230284496,1.2842158838219997,1.075920513620001,0.9288311084799996
1703230284510,1.2869941408219994,1.080608443620001,0.9268561294799996
1703230284524,1.2894706388219994,1.084381630620001,0.9244494324799998
1703230284538,1.2914950858219991,1.086265330620001,0.9211038484799998
1703230284552,1.292986169821999,1.0867914983200009,0.91688863648
1703230284566,1.2942966018219992,1.086705062560001,0.91206358648
1703230284579,1.2957854868219991,1.086887934360001,0.90742314348
1703230284594,1.2975499998219993,1.087578834960001,0.90321202548
1703230284607,1.2994711968219992,1.088461850460001,0.8994382644799999
1703230284622,1.3015043478219992,1.089057718060001,0.8957629524799998
1703230284635,1.303616924821999,1.089387374560001,0.8921401154799998
1703230284649,1.3057248078219992,1.089226288260001,0.8890444464799998
1703230284663,1.3078622378219993,1.089701390960001,0.8867809034799998
1703230284677,1.310302801821999,1.0909220249600011,0.8856942484799998
1703230284691,1.3132431438219994,1.092595189960001,0.8856575809099998
1703230284705,1.3164522358219994,1.094259498960001,0.8862682552099997
1703230284719,1.320186149821999,1.094686936860001,0.8867398253099997
1703230284733,1.3241381488219994,1.093674988860001,0.8868162894499997
1703230284747,1.3279327258219995,1.092017256860001,0.8870297665499997
1703230284761,1.3319675428219997,1.090420903860001,0.8878964668499997
1703230284774,1.3362571058219994,1.089583068860001,0.8894994698499997
1703230284788,1.3407675988219994,1.089495634260001,0.8920159558499997
1703230284802,1.3447635768219994,1.089652204160001,0.8948248818499998
1703230284816,1.3480182578219997,1.089521687760001,0.8974967108499997
1703230284830,1.3506873388219995,1.088752218560001,0.8996034378499997
1703230284843,1.3529986578219997,1.087688288560001,0.9013409498499998
1703230284858,1.3554983728219994,1.087476415660001,0.9032523398499998
1703230284871,1.3581861268219997,1.088772642660001,0.9053532548499996
1703230284885,1.3615617528219994,1.091819456660001,0.9078932608499998
1703230284899,1.3658732228219994,1.0959819866600011,0.9108516788499996
1703230284913,1.3706421828219997,1.1001393256600012,0.9136953898499998
1703230284927,1.3755877358219994,1.1031537416600012,0.9159022478499996
1703230284941,1.3806316528219995,1.1050931466600011,0.9174989138499996
1703230284955,1.3859416488219996,1.1059335254600011,0.9182655466499996
1703230284969,1.3913036298219996,1.106138039460001,0.9182516346699996
1703230284983,1.3966552258219995,1.106478604960001,0.9178761659699995
1703230284997,1.4018532478219996,1.1076178149600011,0.9177241547699996
1703230285011,1.4072469348219996,1.1091537939600011,0.9178070197799996
1703230285024,1.4124044958219997,1.110937967960001,0.9181744882799996
1703230285038,1.4175662688219997,1.1124635639600011,0.9188161123799996
1703230285052,1.4226946738219997,1.114071986960001,0.9203219823799996
1703230285066,1.4276496328219996,1.115878581960001,0.9226849843799996
1703230285080,1.4324243528219995,1.117787736960001,0.9259639803799996
1703230285095,1.4370250138219995,1.119329202960001,0.9297684693799996
1703230285108,1.4415202628219996,1.119928967260001,0.9332812973799997
1703230285121,1.4456475098219996,1.119086085260001,0.9356160163799996
1703230285135,1.4492607068219996,1.1167084242600012,0.9363317383799996
1703230285149,1.4521471508219996,1.1133773192600012,0.9356185445799996
1703230285163,1.4550634148219996,1.1107789242600012,0.9343570435799996
1703230285177,1.4584983548219996,1.1102977565600012,0.9337361158799996
1703230285190,1.4624152798219996,1.1124317315600012,0.9343646594799996
1703230285205,1.4669408678219995,1.1165175195600012,0.9362718834799996
1703230285218,1.4716674128219995,1.121117419560001,0.9390641424799996
1703230285232,1.4763281748219996,1.1246772965600014,0.9417899334799996
1703230285246,1.4807595968219995,1.1264787215600014,0.9442068834799996
1703230285260,1.4850654978219997,1.1265499526200011,0.9466261974799997
1703230285274,1.4890570008219994,1.125538891620001,0.9494041564799997
1703230285287,1.4934075628219994,1.1241607516200014,0.9528020594799996
1703230285302,1.4980549838219994,1.1226261716200014,0.9569074094799996
1703230285316,1.503001179821999,1.1210739736200015,0.9616296864799996
1703230285329,1.5082561858219994,1.1193576816200017,0.9663483884799996
1703230285343,1.513592678821999,1.1170224076200015,0.9708645124799996
1703230285357,1.5189983908219993,1.1146401856200014,0.9755519174799996
1703230285371,1.5246145198219994,1.1123315016200015,0.9805947304799996
1703230285384,1.5303319918219993,1.1106715356200014,0.9866164754799996
1703230285399,1.5358582718219993,1.110612121520001,0.9937898744799996
1703230285413,1.5411570058219992,1.1118380795200014,1.0022651074799998
1703230285426,1.5462166048219992,1.1132313445200013,1.0113105794799997
1703230285440,1.5509426138219993,1.1142318275200014,1.0201099814799997
1703230285453,1.5555543838219992,1.1145405541200013,1.0283501944799998
1703230285467,1.5597587538219992,1.1140588488200014,1.0359220204799997
1703230285481,1.5636095838219992,1.1134802837200013,1.0430875854799997
1703230285495,1.5671872988219993,1.1134360330900013,1.0499249594799998
1703230285509,1.5708856938219993,1.1138981630900011,1.0562734244799998
1703230285522,1.5747695048219992,1.1153374410900014,1.0623579664799998
1703230285536,1.5787122128219993,1.1175534910900011,1.0685548504799998
1703230285550,1.5825105998219993,1.1202125760900012,1.0749468604799997
1703230285566,1.586145218821999,1.1226222620900013,1.0813530864799996
1703230285578,1.5896914208219994,1.1245179360900013,1.0873936074799997
1703230285593,1.5928962188219995,1.1256263330900014,1.0926326474799997
1703230285606,1.5960436528219994,1.1264941372900017,1.0971009854799996
1703230285620,1.5994387008219997,1.1273891168900014,1.1009453804799996
1703230285634,1.6033735708219994,1.1277865233900015,1.1046562884799995
1703230285648,1.6078717798219997,1.1277075917600017,1.1083983464799996
1703230285661,1.6127461378219994,1.1267772281600017,1.1126186764799997
1703230285675,1.6182561948219991,1.1243249831600015,1.1171897814799996
1703230285690,1.6244133088219994,1.1203804211600017,1.1217033794799995
1703230285703,1.6309321888219994,1.1143175661600015,1.1255092084799996
1703230285717,1.6376414368219994,1.1069165221600017,1.1283381474799996
1703230285731,1.6439473688219994,1.0995428891600014,1.1305833704799997
1703230285744,1.6502347428219994,1.0925114101600015,1.1324710394799995
1703230285758,1.6563871718219991,1.0865393911600014,1.1346496094799998
1703230285772,1.6626982088219993,1.081649667160001,1.13763115948
1703230285786,1.6686824018219992,1.0780442111600013,1.14124794448
1703230285801,1.674316159821999,1.0757056741600013,1.14525507048
1703230285814,1.6795311428219992,1.0739523531600013,1.14932724148
1703230285828,1.6845445788219993,1.0723622711600012,1.15316752348
1703230285842,1.6896740748219992,1.0707174441600011,1.1567996684800002
1703230285855,1.6956201238219992,1.068636854160001,1.1606419954800002
1703230285870,1.7020459278219993,1.0664202031600012,1.1648765324800003
1703230285884,1.7086512898219992,1.0641366351600012,1.1691672284800003
1703230285898,1.7152424818219991,1.0617906351600013,1.1732140164800002
1703230285912,1.721913790821999,1.0591525851600012,1.1768536484800003
1703230285925,1.7285883978219991,1.0558546801600013,1.1802019574800002
1703230285939,1.7354755368219992,1.0518659661600014,1.1839791024800002
1703230285954,1.742769724821999,1.0482176241600014,1.1886961744800002
1703230285967,1.7505066598219992,1.0466475551600014,1.1942101174800002
1703230285981,1.758400789821999,1.0477319071600013,1.2004185984800002
1703230285995,1.7659411488219992,1.0502526451600014,1.2066087494800002
1703230286008,1.7727875128219992,1.0525830351600014,1.2118770384800002
1703230286022,1.7790449838219993,1.0534344191600014,1.21557430548
1703230286036,1.7850656468219992,1.0518468401600014,1.21749062348
1703230286050,1.7906477868219992,1.0489101731600017,1.21812300498
1703230286064,1.7959886198219992,1.0462809711600014,1.21805457629
1703230286078,1.8014187028219992,1.0452576741600017,1.2182061354900002
1703230286091,1.8074268028219995,1.0463229471600015,1.2190635979900002
1703230286105,1.813697949822,1.0489906571600016,1.2209774669900002
1703230286119,1.8206185278219995,1.0510906661600017,1.22344962399
1703230286133,1.8277439138219995,1.0514050390600016,1.2258516219900002
1703230286147,1.8348187268219995,1.0480937600600015,1.22780717499
1703230286161,1.842031290822,1.0407243800600017,1.22913612999
1703230286175,1.8494125578219995,1.0296135800600017,1.2298328495900002
1703230286189,1.857377330822,1.0178330400600015,1.2303063171900002
1703230286203,1.865946096822,1.0082675220600017,1.2312746972900002
1703230286216,1.875006777822,1.0022826780600014,1.2337339932900002
1703230286230,1.883997001822,0.9993082120600014,1.2373359682900005
1703230286244,1.892921608822,0.9981950140600014,1.2411545732900002
1703230286258,1.901519104822,0.9974075309600016,1.2444190502900003
1703230286272,1.9097137778219992,0.9959907549600014,1.2471679262900004
1703230286286,1.9170792148219995,0.9940402219600014,1.2499917202900004
1703230286300,1.923720690822,0.9913222209600014,1.2534572162900004
1703230286314,1.9300643478219992,0.9885453069600014,1.2576243342900004
1703230286328,1.935968277821999,0.9869487189600016,1.2617207572900004
1703230286342,1.941343313821999,0.9862760884600016,1.2651138252900005
1703230286356,1.9465556878219992,0.9859163373600016,1.2676819152900003
1703230286370,1.951620870821999,0.9850248462600016,1.2691794712900004
1703230286384,1.956538975821999,0.9827400842600016,1.2691414621500003
1703230286397,1.961339638821999,0.9783387992600014,1.2675980571500003
1703230286412,1.965797745821999,0.9728830492600016,1.2649043761500005
1703230286427,1.969913844821999,0.9670495462600016,1.2611892531500002
1703230286440,1.9738027058219991,0.9600433542600016,1.2561915971500002
1703230286454,1.9767928958219991,0.9519017252600016,1.24980563415
1703230286467,1.9793595498219991,0.9421500352600016,1.2421685321500002
1703230286481,1.981696602821999,0.9313534952600016,1.2340004721500002
1703230286495,1.984161095821999,0.9237809742600016,1.22615452215
1703230286509,1.9871221158219992,0.9234603061600016,1.21980350915
1703230286523,1.990123199822,0.9304809561600016,1.2152707421500002
1703230286537,1.9931688988219995,0.9427366061600014,1.2113218011500002
1703230286551,1.9963880148219992,0.9567598161600014,1.2058011031500002
1703230286564,1.9996273468219992,0.9694956161600014,1.1977512891500002
1703230286579,2.002766404822,0.9800825361600014,1.1874969991500002
1703230286592,2.0057727758219994,0.9891472671600016,1.1760085991500002
1703230286606,2.008757873822,0.9974920771600014,1.1644135991500002
1703230286620,2.0126770818219994,1.005432028160001,1.1530513491500003
1703230286634,2.0176352928219994,1.0127297201600014,1.1417174991500003
1703230286648,2.023740608822,1.019261451160001,1.1301876691500004
1703230286662,2.0309135758219994,1.0245326321600012,1.1184279191500004
1703230286676,2.0388839608219995,1.0288843071600011,1.1068444491500005
1703230286690,2.047342977822,1.0329561731600014,1.0961010391500006
1703230286703,2.0555892558219995,1.0372901931600014,1.0862977231500006
1703230286718,2.0636656368219994,1.0420871571600014,1.0773573001500003
1703230286732,2.071238436822,1.0466682551600015,1.0689938301500006
1703230286745,2.078318939822,1.0505995221600015,1.060512793150001
1703230286759,2.0850064058219995,1.0541967561600014,1.0524665531500006
1703230286773,2.091528983822,1.0575890531600014,1.0448652641500007
1703230286787,2.097640553821999,1.0614582751600017,1.037788202150001
1703230286801,2.103376674821999,1.0653351251600014,1.0313690811500007
1703230286815,2.108606971822,1.0683860301600014,1.0247889561500008
1703230286829,2.1137122188219992,1.0694878321600014,1.0173596671500007
1703230286842,2.118754931821999,1.0683579381600017,1.0086821831500008
1703230286856,2.124163380821999,1.0653368181600014,0.9993313441500008
1703230286871,2.130296180821999,1.0617713611600013,0.9905819981500008
1703230286884,2.137369074822,1.0591084091600012,0.9829791681500007
1703230286898,2.145367719821999,1.0578219251600012,0.9766447031500008
1703230286912,2.153739122821999,1.0578376039800013,0.9713892681500008
1703230286926,2.162150963821999,1.058064696280001,0.9666265521500008
1703230286940,2.169879819821999,1.0574463971800012,0.9612205611500008
1703230286954,2.176786103821999,1.0551682681800012,0.9541016111500008
1703230286968,2.182554224821999,1.0500147801800013,0.9443857261500008
1703230286982,2.186745354821999,1.0431069201800012,0.9326933861500007
1703230286996,2.189575806821999,1.0364605581800013,0.9203377961500008
1703230287010,2.191320015821999,1.0330656971800012,0.9093563061500008
1703230287023,2.191292932491999,1.0350305731800011,0.9013932881500007
1703230287037,2.189563003491999,1.041299394180001,0.8957829831500008
1703230287053,2.185909118491999,1.051052789180001,0.8913150461500008
1703230287065,2.181716177491999,1.061326319180001,0.8861521171500008
1703230287079,2.176813369491999,1.068119025180001,0.8786120941500007
1703230287093,2.1694882524919987,1.070378768180001,0.8677042141500008
1703230287107,2.1586886724919987,1.068041760180001,0.8536699241500008
1703230287121,2.1446411624919985,1.0622890101800009,0.8378076341500007
1703230287135,2.1287219924919984,1.054233806180001,0.8218617241500007
1703230287149,2.1128458624919983,1.045419426180001,0.8090156641500007
1703230287162,2.0980553224919984,1.036993856180001,0.8030777151500007
1703230287176,2.0832323024919983,1.030900170180001,0.8058330061500008
1703230287190,2.0673443324919982,1.025021353180001,0.8148457651500007
1703230287204,2.050694832491998,1.015241954180001,0.8237159081500007
1703230287218,2.034868522491998,0.9993975141800012,0.8269890511500008
1703230287232,2.021198542491998,0.9792224541800012,0.8245296641500007
1703230287245,2.010324812491998,0.9583936541800012,0.8187530051500007
1703230287260,2.001545186491998,0.9400175741800012,0.8124578151500007
1703230287273,1.9950823824919977,0.9247419041800012,0.8065243861500007
1703230287287,1.9913659404919977,0.9127628241800012,0.8002796741500007
1703230287301,1.9907957323919976,0.9021245841800012,0.7926897271500006
1703230287315,1.9930895583919976,0.8918425841800011,0.7836930621500007
1703230287329,1.997593089391997,0.8818045841800011,0.7746762181500007
1703230287343,2.0028612623919977,0.8707279441800011,0.7655092291500006
1703230287357,2.0086308053919977,0.8568559041800011,0.7542529891500006
1703230287371,2.0143722923919976,0.8393894641800012,0.7386876591500006
1703230287385,2.019918020391997,0.8182673741800012,0.7187441791500006
1703230287399,2.024772413391997,0.7957062941800012,0.6956900391500005
1703230287412,2.0286268243919974,0.7740366241800012,0.6719364191500005
1703230287426,2.031431925391997,0.7543795441800012,0.6490369991500005
1703230287440,2.0329699963919974,0.7382556941800011,0.6277066091500004
1703230287454,2.033678385491997,0.7258191341800011,0.6083941591500004
1703230287468,2.0331255602919973,0.7154712541800011,0.5906932091500003
1703230287481,2.029657169291997,0.7067172971800011,0.5739289891500003
1703230287496,2.022420478291997,0.6995876781800011,0.5584616791500003
1703230287509,2.011695488291997,0.6947446771800011,0.5453501691500003
1703230287523,1.998908838291997,0.6921401031800011,0.5353785821500003
1703230287537,1.984119808291997,0.6916080349800011,0.5288888121500004
1703230287551,1.967997278291997,0.6932000849800011,0.5265638171500003
1703230287565,1.951371678291997,0.696126788980001,0.5286434401500003
1703230287579,1.933831188291997,0.699329523980001,0.5351508321500003
1703230287593,1.914540888291997,0.701233470980001,0.5450916831500002
1703230287606,1.893653388291997,0.700307583980001,0.5568067631500002
1703230287620,1.871954698291997,0.694888180980001,0.5690758831500002
1703230287634,1.850158048291997,0.6855607599800011,0.5816201731500003
1703230287648,1.828212568291997,0.6750569599800011,0.5956209731500003
1703230287662,1.806085408291997,0.6676819759800011,0.6105664931500003
1703230287676,1.780323318291997,0.6640346699800012,0.6290373631500004
1703230287690,1.753698228291997,0.6631267172800012,0.6481966731500004
1703230287704,1.7258817982919972,0.6621204392800012,0.6664067331500004
1703230287718,1.700007308291997,0.6615998789800012,0.6812447331500004
1703230287732,1.675890288291997,0.6622766200800012,0.6945438131500005
1703230287746,1.6540881482919971,0.6651578130800012,0.7044541741500004
1703230287759,1.6388253182919972,0.6666848790800012,0.7114793131500005
1703230287773,1.631373309291997,0.6669428027800012,0.7187383491500005
1703230287787,1.6319388205919971,0.6709472407800012,0.7242598751500005
1703230287801,1.6410670295919971,0.6761870677800013,0.7311456201500005
1703230287815,1.656667239591997,0.6834846257800012,0.7383577001500005
1703230287830,1.677499919591997,0.6911948417800012,0.7450445141500005
1703230287843,1.7018848195919971,0.6956337977800012,0.7498423621500006
1703230287857,1.728876489591997,0.6949297290800013,0.7507846817500006
1703230287871,1.753244699591997,0.6901010570800012,0.7501810776500005
1703230287885,1.771420159591997,0.6884683050800012,0.7505080454500005
1703230287899,1.784025359591997,0.6867108830800013,0.7526674804500005
1703230287912,1.793200120591997,0.6829251920800012,0.7558086534500006
1703230287926,1.801121048591997,0.6771650540800013,0.7607041334500005
1703230287940,1.808062693591997,0.6730133140800013,0.7677862034500006
1703230287954,1.813730402591997,0.6754917750800014,0.7759504234500005
1703230287968,1.818342887591997,0.6839106650800013,0.7870365834500005
1703230287983,1.821414364591997,0.6987975550800013,0.8004927334500005
1703230287996,1.8244884705919968,0.7260652350800013,0.8124713834500005
1703230288009,1.8340576835919968,0.7677115850800014,0.8213899654500004
1703230288023,1.8491321235919969,0.8211142150800014,0.8284288474500004
1703230288037,1.8635354435919969,0.8819851350800014,0.8304368804500004
1703230288052,1.8765950335919968,0.9412869250800014,0.8258961064500004
1703230288066,1.8925750135919968,0.9963822650800016,0.8153774464500004
1703230288079,1.9149978235919969,1.0466458450800016,0.8028211064500004
1703230288093,1.9434017835919968,1.0999093950800016,0.7914418364500003
1703230288107,1.9769889235919968,1.1578197250800015,0.7861020734500003
1703230288121,2.0106504935919967,1.2126615050800016,0.7841263904500003
1703230288135,2.0433321635919968,1.2560857250800015,0.7786342794500003
1703230288149,2.0758168135919965,1.2831180850800017,0.7678642694500003
1703230288163,2.1055124435919965,1.2965860550800017,0.7540622094500004
1703230288176,2.1283447235919963,1.3028869900800015,0.7433981294500004
1703230288190,2.146693553591996,1.3043923100800014,0.7343845484500003
1703230288204,2.162137843591996,1.2997767310800017,0.7244133544500003
1703230288219,2.178832623591996,1.2855592010800014,0.7144050044500003
1703230288232,2.1971699335919963,1.260965071080001,0.7032959444500003
1703230288245,2.2133139335919965,1.2286785710800012,0.6913974544500003
1703230288259,2.2264099235919965,1.1933264310800011,0.6819430964500003
1703230288274,2.2349722335919964,1.159068681080001,0.6768664204500003
1703230288287,2.239594490591996,1.127368311080001,0.6771281298500004
1703230288302,2.2442764235919963,1.097840411080001,0.6825167928500003
1703230288315,2.2501003005919964,1.067877201080001,0.6912335198500004
1703230288329,2.2572862225919965,1.038766591080001,0.7017542398500004
1703230288343,2.2692680825919966,1.010520491080001,0.7156357298500005
1703230288356,2.2855898425919965,0.985015101080001,0.7320968898500004
1703230288370,2.3044295125919967,0.962945841080001,0.7490463598500005
1703230288384,2.3239282825919965,0.943320731080001,0.7646530998500004
1703230288399,2.3440712225919964,0.924981351080001,0.7789955798500005
1703230288412,2.3654408625919965,0.904388051080001,0.7936204098500005
1703230288426,2.3875710625919964,0.885170441080001,0.8053792098500004
1703230288440,2.4134586225919965,0.866567381080001,0.8165906098500004
1703230288454,2.4423678025919964,0.848760521080001,0.8290514998500004
1703230288468,2.4742007525919965,0.829626541080001,0.8447057498500004
1703230288481,2.5071705725919964,0.811317311080001,0.8636691398500004
1703230288496,2.5440526325919963,0.791237351080001,0.8844030098500004
1703230288509,2.5821089425919963,0.769214881080001,0.9043363498500004
1703230288523,2.6226197825919964,0.751695891080001,0.9247006798500004
1703230288538,2.661708972591996,0.738198211080001,0.9456327298500004
1703230288551,2.6983639025919963,0.7207106310800011,0.9660209198500004
1703230288566,2.7283006325919965,0.6931931310800011,0.9840527198500004
1703230288579,2.7535661825919964,0.6565200910800011,0.9975633398500006
1703230288593,2.7758892725919964,0.6100633310800011,1.0084967098500006
1703230288606,2.7961264025919963,0.5525801310800011,1.0190857698500009
1703230288620,2.8132736825919964,0.4873223910800011,1.0293297098500007
1703230288634,2.8262231825919963,0.4218066010800011,1.0401009898500009
1703230288648,2.8360166055919964,0.3625756310800011,1.0541043398500007
1703230288662,2.8436107185919965,0.3136463510800011,1.0733872998500007
1703230288676,2.8491756225919964,0.2760264210800011,1.0984074798500008
1703230288690,2.8512757525919965,0.247770801080001,1.1274251498500008
1703230288704,2.8486902135919965,0.227844081080001,1.1562664198500008
1703230288717,2.8415960745919966,0.218697859080001,1.1825518998500009
1703230288732,2.8310638445919967,0.221768201080001,1.206977279850001
1703230288746,2.819052344591997,0.238519671080001,1.2323893698500008
1703230288759,2.807534144591997,0.2667771110800011,1.261132309850001
1703230288773,2.796146634591997,0.3032666910800011,1.2941670498500009
1703230288787,2.783397924591997,0.344337371080001,1.3303677098500009
1703230288801,2.7686688945919973,0.386193211080001,1.3674445798500008
1703230288815,2.7526611445919973,0.426663451080001,1.4037301398500008
1703230288829,2.7368082245919974,0.464053821080001,1.4384781498500008
1703230288843,2.722205024591997,0.499401221080001,1.4730786098500008
1703230288857,2.7086393545919973,0.535187131080001,1.510283619850001
1703230288871,2.6959840445919974,0.572061161080001,1.552903119850001
1703230288885,2.683433474591997,0.607589891080001,1.6002749498500008
1703230288899,2.671236424591997,0.6373014210800011,1.6480536998500008
1703230288912,2.659779654591997,0.6595693010800011,1.6930496598500009
1703230288926,2.649462184591997,0.6762661210800012,1.7355552498500009
1703230288940,2.640015077591997,0.6926003510800012,1.778568529850001
1703230288954,2.6306246215919966,0.7145427710800012,1.8238666998500008
1703230288968,2.619792381591997,0.7474984910800012,1.872223279850001
1703230288982,2.6091258415919967,0.7853973910800012,1.925292429850001
1703230288996,2.5977100015919965,0.8244233710800012,1.979896959850001
1703230289009,2.5853667415919963,0.8633568710800011,2.035973459850001
1703230289023,2.5733221515919964,0.9015114110800012,2.096534389850001
1703230289037,2.561935411591997,0.9383615710800012,2.163955579850001
1703230289051,2.5513262615919965,0.972049091080001,2.238288839850001
1703230289065,2.5410230715919964,0.999533651080001,2.317503349850001
1703230289079,2.5316051875919965,1.016810971080001,2.3990334898500008
1703230289093,2.5240245235919967,1.022263850080001,2.481374379850001
1703230289107,2.5185402705919966,1.015261411080001,2.565061009850001
1703230289121,2.5156092345919965,0.9981469310800009,2.6514176798500007
1703230289135,2.5158763881919963,0.9741382510800008,2.7431173998500005
1703230289149,2.520613124191996,0.9448304910800008,2.8422806498500006
1703230289162,2.529652751191996,0.9124499810800007,2.9494090498500007
1703230289176,2.542172581191996,0.8787676710800009,3.063428949850001
1703230289190,2.558395601191996,0.8440647810800008,3.1827811498500007
1703230289204,2.578230251191996,0.8066809610800009,3.306838149850001
1703230289218,2.601195961191996,0.7667017110800008,3.435390049850001
1703230289232,2.626665661191996,0.7261644110800008,3.569907749850001
1703230289246,2.654660571191996,0.6881030010800009,3.7129655498500007
1703230289259,2.685504421191996,0.6541574110800009,3.8656432498500006
1703230289274,2.719881051191996,0.6262826310800009,4.030639149850001
1703230289287,2.758637151191996,0.6028498510800009,4.20797584985
1703230289302,2.801603321191996,0.5817733310800008,4.39791414985
1703230289316,2.848136881191996,0.5598429910800008,4.59868464985
1703230289329,2.897639131191996,0.5363560610800008,4.80892654985
1703230289343,2.9501162111919963,0.5099559310800008,5.02756134985
1703230289357,3.0057253511919964,0.4781922410800008,5.25467584985
1703230289371,3.0658089611919963,0.4396861910800008,5.48941214985
1703230289385,3.1311514211919964,0.3941891210800008,5.73228064985
1703230289399,3.2027613111919964,0.3428733110800008,5.983992049849999
1703230289412,3.2799380711919963,0.2876597310800008,6.24471974985
1703230289426,3.3628352011919964,0.2291502510800008,6.51489414985
1703230289440,3.4525372311919966,0.1685298210800008,6.79463894985
1703230289454,3.5495040011919965,0.1060566410800008,7.08351294985
1703230289468,3.654183901191996,0.0416727910800008,7.382241849850001
1703230289481,3.766753601191996,-0.0211451589199992,7.693267549850001
1703230289495,3.886700801191996,-0.0795791489199992,8.018372249850001
1703230289509,4.013885001191996,-0.1341358089199992,8.358737049850001
1703230289523,4.147730001191996,-0.1870486089199992,8.71400664985
1703230289537,4.289030001191996,-0.2414272189199992,9.08412774985
1703230289552,4.437762601191996,-0.2992046189199992,9.46730854985
1703230289565,4.592983501191996,-0.3613252289199992,9.86185204985
1703230289579,4.753818801191995,-0.4261063389199993,10.26670904985
1703230289593,4.921438701191995,-0.4904146089199993,10.68330114985
1703230289607,5.097884701191996,-0.5521214689199992,11.112935049850002
1703230289621,5.285115701191995,-0.6091404789199992,11.556404049850002
1703230289635,5.483173801191995,-0.6600680489199993,12.014034549850004
1703230289648,5.690750101191996,-0.7040928389199993,12.485091649850002
1703230289662,5.906803801191995,-0.7388185989199993,12.969484949850004
1703230289676,6.130547101191995,-0.7614703989199993,13.467723949850004
1703230289690,6.361679401191995,-0.7708488559199993,13.980348249850003
1703230289704,6.599025601191995,-0.7674680099199993,14.507037649850004
1703230289718,6.841547501191995,-0.7514059499199993,15.048034049850004
1703230289732,7.087242401191995,-0.7209649699199994,15.601972549850002
1703230289746,7.335989401191995,-0.6739754799199994,16.168386349850003
1703230289759,7.588450601191995,-0.6114095899199994,16.746978349850004
1703230289774,7.846233101191995,-0.5362473499199993,17.336319649850005
1703230289787,8.109799801191995,-0.4525444299199993,17.934460449850004
1703230289801,8.377913801191996,-0.3651380199199993,18.539153549850003
1703230289815,8.649376101191995,-0.2777286499199993,19.14961624985
1703230289829,8.923730401191996,-0.1902434399199993,19.766512549850003
1703230289843,9.201037301191995,-0.1045042399199993,20.38874954985
1703230289857,9.481484901191996,-0.0215154199199993,21.01537664985
1703230289871,9.764512001191996,0.0583279700800006,21.64505474985
1703230289884,10.048876001191996,0.1366533700800006,22.27618694985
1703230289899,10.332865701191997,0.2152511700800006,22.90758594985
1703230289912,10.615844001191997,0.2955303600800006,23.539971149850004
1703230289926,10.897439201191997,0.3770459800800007,24.173366249850005
1703230289941,11.177763101191996,0.4576399400800007,24.808906649850005
1703230289954,11.456502101191996,0.5368646600800007,25.44899694985001
1703230289968,11.733326801191996,0.6146518800800007,26.09748124985001
1703230289982,12.007494901191995,0.6898751700800008,26.75792724985001
1703230289996,12.277682001191996,0.7610856400800008,27.430474949850005
1703230290009,12.543658101191996,0.8255015200800008,28.114225449850004
1703230290023,12.805582901191997,0.8811551800800008,28.807098549850004
1703230290037,13.063922901191996,0.9279765500800008,29.508018549850004
1703230290051,13.318850301191995,0.9669810000800008,30.216273449850004
1703230290065,13.570512601191997,0.9966553500800008,30.930559449850005
1703230290079,13.819222001191994,1.0164994400800007,31.648862249850005
1703230290093,14.066285001191996,1.0305327700800009,32.36882864985
1703230290107,14.312346501191994,1.0420859200800006,33.09122434985
1703230290121,14.557352901191994,1.0523792300800006,33.81648084985
1703230290135,14.798914301191994,1.0600232240800005,34.54436754985
1703230290148,15.036198301191996,1.0620256010800004,35.27335914985
1703230290162,15.268239401191996,1.0575259440800004,36.002858649850005
1703230290177,15.495941401191995,1.0482896690800003,36.733990549850006
1703230290190,15.720165501191996,1.0363025290800003,37.468786349850006
1703230290204,15.940991501191997,1.0219924690800006,38.20799054985001
1703230290217,16.158011801191996,1.0036582390800006,38.95194724985001
1703230290232,16.369774301191995,0.9794394590800006,39.699600649850005
1703230290246,16.574893201191994,0.9475548390800006,40.45029914985
1703230290260,16.773097601191996,0.9080764590800006,41.203849549850005
1703230290273,16.964636101191996,0.8609830290800006,41.96089624985
1703230290287,17.150637301191995,0.8060565790800006,42.72193714985
1703230290301,17.332217801191995,0.7434204590800007,43.48804434985
1703230290315,17.510019501191994,0.6749155490800006,44.25962154985
1703230290330,17.683997801191996,0.6031501890800006,45.037159149850005
1703230290343,17.853951601191994,0.5302262690800006,45.820770049850005
1703230290356,18.020202401191995,0.4584405390800006,46.60983114985
1703230290370,18.182927601191995,0.3898526690800006,47.40412814985
1703230290384,18.342918601192,0.3264502990800006,48.20526174985
1703230290399,18.499850901192,0.2716194890800006,49.01627204985
1703230290412,18.653566201192,0.2286518590800006,49.84007984985
1703230290426,18.804076401192,0.1982522390800006,50.67822054985
1703230290440,18.951409201192,0.1791115990800006,51.53007204985
1703230290454,19.094373901192,0.1665768490800006,52.39271154985
1703230290468,19.231227801192,0.1574566550800006,53.26254534985
1703230290482,19.361611501192,0.1538953130800006,54.13601104985
1703230290496,19.484961201192,0.1609619840800006,55.01059344985
1703230290510,19.603855601191995,0.1794076240800006,55.88584534985
1703230290523,19.722494501192,0.2182498440800006,56.76433484985
1703230290537,19.843564201191995,0.2831635240800005,57.64978044985
1703230290551,19.969797001192,0.3724112140800005,58.54761234985
1703230290567,20.100996601191994,0.4808183140800005,59.45654084985
1703230290579,20.235786001192,0.5961666140800005,60.37016974985
1703230290592,20.373463601192,0.7055533140800005,61.28126344985
1703230290607,20.513244901191992,0.8000052940800005,62.18516834985
1703230290621,20.656372601192,0.8761568840800006,63.08189414985
1703230290635,20.804071601192,0.9390169440800006,63.97364714985
1703230290648,20.955038301192,0.9894227240800004,64.85985894985001
1703230290663,21.108391301192,1.0284703140800004,65.73772684985
1703230290676,21.26287090119199,1.0643537840800004,66.60535384985
1703230290690,21.41875690119199,1.1042687940800004,67.46388024985
1703230290704,21.57729330119199,1.1517504040800004,68.31548224985
1703230290719,21.73915080119199,1.2060665240800004,69.16147304985
1703230290732,21.90454100119199,1.2642623040800005,70.00340464985
1703230290746,22.073897401191992,1.3233924840800002,70.84280274985
1703230290760,22.246983001191992,1.3799748540800003,71.68141194984999
1703230290773,22.423784001192,1.4296614240800003,72.51968354984999
1703230290787,22.604312301191992,1.4687508340800004,73.35791224984999
1703230290802,22.787504901192,1.4939342340800004,74.19567524984998
1703230290815,22.971846201192,1.5022828980800005,75.03061504984998
1703230290829,23.155576501191995,1.4929803730800002,75.86078124984998
1703230290843,23.338092001191995,1.4658229830800005,76.68516804984998
1703230290857,23.520254601192,1.4235444230800005,77.50348854984998
1703230290871,23.703595201192,1.3702034330800004,78.31700704984998
1703230290885,23.889281201192,1.3103321130800003,79.12738334984998
1703230290898,24.077720401192,1.2474371230800003,79.93614944984998
1703230290912,24.268582701192,1.1834350830800002,80.74489074984997
1703230290926,24.461986201192,1.1193244030800005,81.55476484984997
1703230290940,24.658134101192,1.0541570830800002,82.36688474984997
1703230290954,24.857822401192,0.9881410930800002,83.18318754984998
1703230290968,25.061555401191995,0.9221019830800002,84.00449334984998
1703230290982,25.268884001192,0.8547486530800003,84.83003324984998
1703230290996,25.478850901192,0.7847958530800002,85.65905894984998
1703230291010,25.692155801192,0.7133397030800002,86.49361944984997
1703230291023,25.909882001192,0.6409226830800001,87.33615054984998
1703230291038,26.134015101192,0.5673425930800001,88.18908444984997
1703230291051,26.365368001192,0.4920304730800001,89.05292774984997
1703230291065,26.604515801192,0.4147396130800001,89.92783334984998
1703230291079,26.851497401192,0.3356868630800001,90.81302244984998
1703230291093,27.106511501192003,0.2559620330800001,91.70859624984998
1703230291107,27.370095001192,0.1770919030800001,92.61487674984996
1703230291121,27.643934701192,0.1018287430800001,93.53408184984995
1703230291135,27.929499001192003,0.0320371730800001,94.46705544984997
1703230291149,28.227243901192004,-0.0300601969199998,95.41481254984996
1703230291163,28.538087701192005,-0.0826785969199998,96.37877304984995
1703230291176,28.861014301192004,-0.1264459569199998,97.35755484984996
1703230291191,29.195860301192003,-0.1610146169199998,98.35045314984995
1703230291204,29.541972101192,-0.1832100569199999,99.35599014984996
1703230291218,29.897943301192,-0.1919389739199999,100.37271614984996
1703230291232,30.261332101192,-0.1853335839199999,101.39957914984996
1703230291245,30.629258101192,-0.1650109939199999,102.43442314984998
1703230291260,31.001392001192,-0.1276230139199999,103.47848714984998
1703230291273,31.377261601192004,-0.0646534239199999,104.53334414984998
1703230291287,31.755987701192005,0.02104114608,105.59665014984998
1703230291301,32.13724030119201,0.1270210460800001,106.66767814984998
1703230291315,32.521067301192005,0.2456197460800001,107.74403614984998
1703230291329,32.906209601192,0.3698273460800001,108.82214814984998
1703230291343,33.289271201192,0.4910077460800001,109.89764014984998
1703230291357,33.666062601192,0.6028241460800001,110.96742814984998
1703230291370,34.034368401192005,0.7039402460800002,112.02930114985
1703230291384,34.393280101192005,0.7974569360800001,113.08245314984998
1703230291399,34.743361901192,0.8853655460800001,114.12909514985
1703230291412,35.086709401192,0.97160452608,115.17229914985
1703230291427,35.424189401192,1.05516179608,116.21356314985
1703230291440,35.756743001192,1.13087404608,117.25105914985
1703230291454,36.084985501192,1.19669647608,118.28112214985
1703230291468,36.411040601192,1.25061408608,119.30253414985
1703230291482,36.736899201192,1.29517141608,120.31728814985
1703230291496,37.06277250119199,1.33189807608,121.32804614984998
1703230291509,37.38926780119199,1.36164528608,122.33768014985
1703230291523,37.71606870119199,1.38695155608,123.34710414984998
1703230291537,38.043130901192,1.40959133608,124.35662314984998
1703230291551,38.370285601192,1.43129100608,125.36651714984998
1703230291566,38.695809701192,1.4512726160800002,126.37742314985
1703230291579,39.018126601192,1.4664361060800002,127.38936614985
1703230291593,39.33689940119199,1.4744423880800002,128.40203614985
1703230291607,39.65203610119199,1.47375195858,129.41532414985
1703230291621,39.96339640119199,1.46473975258,130.43030514985
1703230291635,40.270600401191984,1.44789979258,131.44874014985
1703230291648,40.57387510119199,1.42271351258,132.47294114985002
1703230291663,40.87321990119199,1.3883424725800002,133.50395214985002
1703230291676,41.16846310119199,1.3441497325800005,134.54016614985002
1703230291690,41.45996320119199,1.2888516725800003,135.57838414985002
1703230291704,41.74752800119199,1.2229459625800003,136.61546814985002
1703230291718,42.03136460119199,1.1521483125800005,137.65090714985
1703230291732,42.31148510119199,1.0830214425800002,138.68776714985
1703230291747,42.58844260119199,1.0205166925800002,139.73009214985
1703230291759,42.86225870119199,0.9669607725800002,140.78015414985
1703230291774,43.13337490119199,0.9217286725800002,141.83881414985
1703230291787,43.40115650119199,0.8821519125800003,142.90567114985
1703230291801,43.664396501192,0.8435655325800002,143.97946114985
1703230291814,43.922386701192,0.8005203425800003,145.05847614985
1703230291829,44.174594601192,0.7491411725800002,146.13926714985
1703230291843,44.422030701192,0.6886968725800002,147.21910114985002
1703230291856,44.664874101192,0.6251872025800003,148.29599114985
1703230291871,44.903237001192,0.5636717725800002,149.37000814985
1703230291885,45.138472301192,0.5086592725800002,150.44141014985
1703230291899,45.373726301192,0.4797583825800002,151.51323214985
1703230291912,45.609451801192,0.4950194825800001,152.58960414985
1703230291926,45.84707840119199,0.5529788325800001,153.67741914985
1703230291940,46.08768670119199,0.6451403725800001,154.77711914985002
1703230291954,46.330252001192,0.7594495725800001,155.88179714985003
1703230291968,46.57381340119199,0.8835496725800002,156.98332514985003
1703230291982,46.81678240119199,1.0070671725800002,158.07508414985003
1703230291996,47.060864101192,1.1200161725800002,159.15341214985003
1703230292009,47.309606101192,1.2202346725800002,160.21735914985004
1703230292023,47.56366380119199,1.3144303325800002,161.26898714985003
1703230292037,47.82358650119199,1.4045475825800002,162.31159014985005
1703230292051,48.08829890119199,1.4936884625800002,163.35046414985004
1703230292065,48.35708340119199,1.5828654625800005,164.38862114985005
1703230292079,48.631682401192,1.6700108325800005,165.42840414985005
1703230292093,48.911501301192,1.7527459225800002,166.46894614985004
1703230292106,49.195766301192,1.8265629125800005,167.50808414985005
1703230292120,49.484249001192,1.8875458325800003,168.54515014985006
1703230292135,49.776575501192,1.9336977425800004,169.58069314985005
1703230292148,50.071911201192,1.9650625625800004,170.61574814985005
1703230292162,50.370062601192,1.9810679425800004,171.65076114985004
1703230292176,50.670584701192006,1.9805925405800004,172.68414214985003
1703230292190,50.97261660119201,1.9617136005800004,173.71416114985004
1703230292204,51.27579420119201,1.9261689005800005,174.73947114985003
1703230292218,51.579399401192006,1.8803729205800004,175.76143114985004
1703230292232,51.883262201192,1.8280183005800004,176.78327214985003
1703230292245,52.187974401192,1.7700896405800004,177.80711014985005
1703230292259,52.494876501192,1.7066668005800003,178.83419314985005
1703230292274,52.804028801192,1.6352650805800004,179.86443714985006
1703230292288,53.113986701192005,1.5534336405800004,180.89507314985005
1703230292302,53.424395101192005,1.4604980505800005,181.92256614985004
1703230292315,53.736487101192,1.3571117505800006,182.94590114985004
1703230292329,54.05240440119201,1.2460306505800005,183.96645414985005
1703230292343,54.373279701192,1.1313900505800003,184.9871521498501
1703230292357,54.699370301192005,1.0151119505800006,186.01018114985007
1703230292371,55.029254301192005,0.8978229505800006,187.03593714985007
1703230292385,55.36247240119201,0.7785666505800006,188.0627561498501
1703230292399,55.69942600119201,0.6562799505800007,189.08841314985008
1703230292412,56.04201960119201,0.5316983505800007,190.11261814985005
1703230292426,56.39129670119201,0.4098897505800007,191.13586214985008
1703230292440,56.74678860119201,0.2956808505800007,192.15885114985005
1703230292454,57.106694201192006,0.1887001505800007,193.1808431498501
1703230292468,57.469509301192005,0.0910496005800007,194.19969214985005
1703230292482,57.832241601192,0.0109118505800007,195.21170914985004
1703230292496,58.190563301192,-0.0479087794199992,196.21607714985004
1703230292509,58.542286201192,-0.0842915494199992,197.21392844985004
1703230292524,58.888224901192,-0.0887551294199992,198.20899284985003
1703230292537,59.230388201192,-0.0484808494199992,199.20709804985003
1703230292551,59.572401401192,0.0381463105800007,200.21401004985003
1703230292565,59.916782201192,0.1627815105800007,201.22991604985003
1703230292579,60.264768701192,0.3130052105800007,202.25002204985003
1703230292593,60.615290101192,0.4776798105800007,203.27060804985004
1703230292608,60.96731760119199,0.6504504105800007,204.29183404985005
1703230292620,61.317413101192,0.8269014105800008,205.3133100498501
1703230292634,61.66163900119199,1.0017443105800008,206.3324020498501
1703230292648,61.994855801192,1.1675563105800009,207.3422620498501
1703230292662,62.316797501192,1.320213710580001,208.33942534985007
1703230292676,62.626943101192,1.4602845105800009,209.32245404985008
1703230292690,62.927489901192,1.590947310580001,210.29695884985009
1703230292704,63.221373201192,1.716685510580001,211.2682895498501
1703230292718,63.51046770119199,1.840718810580001,212.2391348498501
1703230292732,63.79694340119199,1.959040710580001,213.2096597498501
1703230292746,64.08148110119198,2.066477810580001,214.1788342498501
1703230292760,64.36395630119198,2.159706340580001,215.1454417498501
1703230292774,64.64310540119197,2.236322410580001,216.1096871498501
1703230292787,64.91831060119198,2.292804780580001,217.07148714985013
1703230292801,65.18922940119198,2.325906930580001,218.02922574985013
1703230292815,65.45511780119197,2.330763246580001,218.98109304985013
1703230292831,65.71634210119197,2.307225666580001,219.9280944498501
1703230292843,65.97286060119197,2.261726126580001,220.8712481498501
1703230292857,66.22600030119197,2.203897226580001,221.8141287498501
1703230292871,66.47712140119198,2.139332166580001,222.7583000498501
1703230292885,66.72820220119198,2.069385226580001,223.7035457498501
1703230292898,66.97931860119198,1.994140036580001,224.6473201498501
1703230292912,67.22998130119198,1.914692796580001,225.5878028498501
1703230292926,67.47956010119198,1.8340938865800007,226.5255012498501
1703230292940,67.72895990119198,1.7573022065800012,227.46269364985008
1703230292954,67.97792510119199,1.6887180665800012,228.40332134985007
1703230292968,68.22453910119198,1.6286516865800011,229.35078284985008
1703230292982,68.46693340119198,1.5758380665800011,230.30576884985007
1703230293003,68.70315060119198,1.527963906580001,231.2638398498501
1703230293009,68.93352460119198,1.480872786580001,232.22092804985004
1703230293022,69.15956460119197,1.4326172765800012,233.17524914985003
1703230293036,69.38090480119197,1.3822058365800012,234.12630904985
1703230293049,69.59834420119198,1.3319450765800012,235.07818684985003
1703230293064,69.81202500119198,1.285111446580001,236.03431584985003
1703230293078,70.02300580119199,1.243414696580001,236.99592364985003
1703230293092,70.23242170119198,1.205666426580001,237.96093504985004
1703230293107,70.44178320119198,1.171413746580001,238.92835534985
1703230293120,70.65299130119197,1.143858586580001,239.89871954985003
1703230293134,70.86699280119197,1.126079776580001,240.87477114985003
1703230293148,71.08483520119196,1.125773788980001,241.85928174985003
1703230293163,71.30611060119196,1.147074648980001,242.85465374985003
1703230293175,71.53150410119196,1.189657998980001,243.86276074985005
1703230293189,71.76252120119196,1.257790288980001,244.88467574985003
1703230293203,71.99780180119195,1.349299008980001,245.91978874985003
1703230293217,72.23511000119196,1.449811208980001,246.96294974985005
1703230293232,72.47042720119195,1.552447208980001,248.00432274985
1703230293245,72.70200850119195,1.651637848980001,249.03880974985003
1703230293259,72.93189480119196,1.745135818980001,250.06826674985004
1703230293273,73.16308760119196,1.835386708980001,251.09726874985003
1703230293288,73.39735580119196,1.923197878980001,252.12940374985004
1703230293302,73.63469460119197,2.003536828980001,253.16360274985004
1703230293315,73.87514510119196,2.073552928980001,254.19554874985005
1703230293329,74.11849590119196,2.1353487889800014,255.22132174985003
1703230293343,74.36389040119197,2.191230448980001,256.24039474985005
1703230293356,74.61078200119196,2.242171688980001,257.25467274985004
1703230293371,74.85869640119196,2.287797528980001,258.26516674985004
1703230293384,75.10870470119197,2.325778938980001,259.27154574985
1703230293399,75.36146000119197,2.354083718980001,260.27388874985
1703230293412,75.61795970119198,2.372270588980001,261.27289294985
1703230293425,75.88012840119198,2.382900358980001,262.27025484985
1703230293440,76.15075810119198,2.387757805980001,263.26854404985
1703230293454,76.43049650119198,2.385695264980001,264.27032304985
1703230293468,76.71959370119198,2.374823724980001,265.27713304985
1703230293482,77.01523800119199,2.355070064980001,266.28982004985
1703230293495,77.31507320119199,2.324682314980001,267.30898204985
1703230293509,77.619462401192,2.283036794980001,268.33437204985
1703230293523,77.930043401192,2.229149834980001,269.36539204985
1703230293537,78.246860301192,2.161946114980001,270.40041204985
1703230293551,78.568557801192,2.079768064980001,271.43811904985
1703230293565,78.893159501192,1.985827224980001,272.47837304985
1703230293579,79.220282101192,1.885610924980001,273.52172604985003
1703230293593,79.552399801192,1.786515974980001,274.57009204985
1703230293607,79.89172490119199,1.694424694980001,275.62594704985
1703230293621,80.238249401192,1.609265964980001,276.69041904985005
1703230293634,80.589953301192,1.528368844980001,277.76122804985005
1703230293648,80.94388590119199,1.448346464980001,278.83409904985007
1703230293662,81.300518401192,1.368685974980001,279.9066970498501
1703230293676,81.66280970119199,1.292343314980001,280.9799350498501
1703230293690,82.03481840119198,1.224762594980001,282.0575490498501
1703230293704,82.41809920119198,1.169445624980001,283.1424300498501
1703230293718,82.81254530119197,1.125032024980001,284.2347590498501
1703230293732,83.21509250119198,1.087068304980001,285.33085904985006
1703230293745,83.62221250119198,1.0571928649800009,286.42625604985005
1703230293759,84.03041410119198,1.0374063849800008,287.51856404985006
1703230293772,84.43802030119198,1.0295028629800007,288.60943804985004
1703230293786,84.84325330119198,1.0340553689800007,289.70097404985006
1703230293801,85.24645150119198,1.0551592389800006,290.7965200498501
1703230293815,85.64668360119198,1.1020749089800006,291.89838404985005
1703230293829,86.04260650119198,1.1696202889800007,293.00708604985005
1703230293843,86.43452030119198,1.2500589689800008,294.12047304985003
1703230293857,86.82099300119198,1.3367998089800008,295.23418304985006
1703230293870,87.20262420119198,1.4204047889800009,296.34901504985004
1703230293884,87.57898930119198,1.4994686289800008,297.46550504985004
1703230293898,87.94870910119198,1.5724761889800007,298.58394404985006
1703230293912,88.31024320119198,1.6380000989800008,299.7041860498501
1703230293925,88.66385470119198,1.6975826989800007,300.82479904985007
1703230293940,89.01014830119198,1.7539231789800007,301.9445210498501
1703230293953,89.35128210119197,1.8042133089800008,303.0627500498501
1703230293967,89.69029520119197,1.8477609589800008,304.1796600498501
1703230293981,90.02717190119198,1.8848952189800008,305.2946570498501
1703230293995,90.36215640119198,1.9152392289800009,306.40755904985014
1703230294010,90.69404430119198,1.939118978980001,307.51902404985015
1703230294023,91.02278400119198,1.957270788980001,308.63013604985014
1703230294037,91.34803500119196,1.968669268980001,309.7428600498501
1703230294051,91.66985350119198,1.971376738980001,310.85850104985013
1703230294065,91.98910500119196,1.962494202980001,311.97575204985014
1703230294079,92.30649670119196,1.939208872980001,313.09168404985013
1703230294093,92.62337950119198,1.901529242980001,314.2046630498501
1703230294107,92.94040240119196,1.852223882980001,315.31551904985014
1703230294120,93.25745270119198,1.795134922980001,316.42732904985013
1703230294134,93.57367800119198,1.732936542980001,317.54287104985013
1703230294148,93.88967880119198,1.664009542980001,318.6640040498501
1703230294162,94.20656170119196,1.587020792980001,319.7910300498501
1703230294176,94.52448470119197,1.5012473929800012,320.9240700498501
1703230294189,94.84308560119196,1.4087280029800011,322.0628470498501
1703230294204,95.16162930119198,1.311434272980001,323.20641604985013
1703230294218,95.48012360119198,1.209014072980001,324.35473904985014
1703230294232,95.79839800119198,1.103884872980001,325.5075620498501
1703230294247,96.11519780119198,0.997587072980001,326.66538304985016
1703230294259,96.42872920119198,0.892076872980001,327.8288780498502
1703230294272,96.736961001192,0.792280052980001,328.99868504985017
1703230294286,97.039086301192,0.702051572980001,330.17649104985014
1703230294301,97.334612601192,0.622244972980001,331.36238704985016
1703230294315,97.624211401192,0.551698852980001,332.5542680498502
1703230294329,97.90684380119198,0.493678462980001,333.7482860498502
1703230294343,98.18202210119198,0.450563582980001,334.94007604985023
1703230294356,98.45151890119196,0.424864602980001,336.12584004985024
1703230294370,98.71958380119196,0.428435649980001,337.30639504985027
1703230294385,98.99068930119198,0.474297779980001,338.48646504985027
1703230294398,99.26864990119198,0.563865899980001,339.67351404985027
1703230294412,99.55510960119196,0.688107699980001,340.87241704985024
1703230294426,99.84729100119198,0.836957399980001,342.07871104985026
1703230294440,100.14211620119198,0.9956497999800008,343.28305904985024
1703230294454,100.43824640119198,1.147807399980001,344.47851004985023
1703230294469,100.73691430119196,1.2799987999800009,345.65988004985024
1703230294483,101.04047580119196,1.3901308999800008,346.82576604985024
1703230294495,101.34919720119196,1.479341729980001,347.97749704985023
1703230294509,101.66286560119195,1.5520018499800008,349.1193410498502
1703230294523,101.97995650119196,1.6131784199800008,350.2541600498502
1703230294537,102.30024110119196,1.664597889980001,351.3844300498502
1703230294551,102.62336570119196,1.7094313099800007,352.5120510498502
1703230294565,102.94965000119196,1.7493030699800007,353.6380240498502
1703230294579,103.27916630119196,1.7844476699800007,354.7630180498502
1703230294592,103.61065180119196,1.8128041499800007,355.8869730498502
1703230294607,103.94289890119197,1.8320263799800007,357.0100020498502
1703230294621,104.27586240119196,1.8400092939800008,358.1331010498502
1703230294635,104.61024220119197,1.8362878869800008,359.2568800498502
1703230294648,104.94612550119196,1.819858716980001,360.3827350498502
1703230294662,105.28373630119196,1.7901039169800006,361.5108780498503
1703230294676,105.62280020119196,1.7441731369800006,362.6411570498502
1703230294689,105.96234780119195,1.679386326980001,363.7725410498503
1703230294703,106.30150140119196,1.5957290669800006,364.9024910498503
1703230294719,106.64007110119196,1.4978247169800003,366.0309810498503
1703230294732,106.97891110119195,1.3890157169800006,367.1593380498503
1703230294745,107.31955020119196,1.2730232169800006,368.28839304985024
1703230294759,107.66351210119196,1.1527543169800007,369.4194550498502
1703230294773,108.01080230119196,1.0276030169800008,370.5514500498503
1703230294787,108.36156020119196,0.8972321169800008,371.6840310498503
1703230294801,108.71709020119197,0.7678889169800008,372.8172080498503
1703230294815,109.07861360119196,0.6436275169800009,373.95209904985023
1703230294829,109.44813330119196,0.5244260169800009,375.0901270498503
1703230294843,109.82647220119196,0.4077038169800009,376.2298240498503
1703230294857,110.21222020119195,0.2898614169800009,377.3679930498503
1703230294871,110.60460200119196,0.1671543169800008,378.5011510498503
1703230294885,111.00232390119196,0.0420977169800008,379.6254410498502
1703230294898,111.40450450119197,-0.0779222830199991,380.7393540498503
1703230294912,111.80874310119196,-0.1843314830199991,381.8420860498503
1703230294926,112.21179440119197,-0.2638771730199991,382.93440104985024
1703230294941,112.60902010119196,-0.3100702330199991,384.0167450498502
1703230294954,113.00000250119196,-0.3201265030199991,385.0937190498502
1703230294968,113.38228670119196,-0.2887772230199991,386.1668770498502
1703230294981,113.75610730119196,-0.2228057730199991,387.2384730498502
1703230294996,114.12368170119196,-0.1251902230199991,388.3082410498502
1703230295009,114.48756810119195,-0.0028106230199991,389.3752540498502
1703230295023,114.85035550119196,0.1375247769800008,390.44199504985016
1703230295036,115.21013070119196,0.2921904769800008,391.5085660498502
1703230295051,115.56350140119196,0.4523783769800008,392.57424504985016
1703230295065,115.90633190119196,0.6071173769800008,393.6368730498502
1703230295078,116.23808740119196,0.7513602769800007,394.69464904985017
1703230295092,116.55933370119196,0.8846007769800007,395.7460160498502
1703230295107,116.87413330119196,1.0058728769800007,396.7919690498502
1703230295121,117.18574730119197,1.1169639769800006,397.8344610498502
1703230295134,117.49542320119195,1.2186784769800003,398.8757710498502
1703230295148,117.80413820119198,1.3117293769800005,399.91835504985016
1703230295162,118.11398630119196,1.3972295669800006,400.96353904985017
1703230295176,118.42699700119198,1.4733250869800003,402.0117350498502
1703230295190,118.74289650119198,1.5381108169800006,403.0618300498502
1703230295204,119.05985340119196,1.5870852069800006,404.1126430498502
1703230295217,119.37506170119195,1.6172627169800005,405.16387404985016
1703230295231,119.68875710119195,1.6286170469800003,406.21719504985015
1703230295245,120.00242570119195,1.6255456799800003,407.27480904985015
1703230295259,120.31732680119195,1.6134602599800003,408.33800504985015
1703230295273,120.63302400119196,1.5924556299800006,409.4084870498502
1703230295287,120.94738560119195,1.5606134099800006,410.48668804985016
1703230295301,121.25697370119197,1.5156550599800007,411.57068804985016
1703230295315,121.55910770119196,1.4546851199800006,412.65838604985015
1703230295329,121.85266880119195,1.3785494799800009,413.7476850498501
1703230295343,122.13884740119197,1.2905011299800009,414.8392290498501
1703230295356,122.41926260119196,1.1952056599800007,415.9361540498501
1703230295370,122.69498030119196,1.0989444299800006,417.0427460498501
1703230295384,122.96706040119196,1.0076471799800006,418.1606840498501
1703230295398,123.23579610119197,0.9244368099800008,419.2906060498501
1703230295412,123.50091770119197,0.8472520099800007,420.4297420498501
1703230295426,123.76287140119196,0.7737939299800007,421.5754560498501
1703230295440,124.02187390119197,0.7017414399800007,422.7268870498501
1703230295453,124.27744000119196,0.6318343299800007,423.8837060498501
1703230295468,124.52827380119194,0.5671848099800006,425.0461830498501
1703230295482,124.77347970119196,0.5106177199800006,426.2140990498501
1703230295496,125.01485330119196,0.4667194899800006,427.3844360498501
1703230295509,125.25476240119195,0.4424670499800006,428.5540250498501
1703230295523,125.49512450119197,0.4445729489800006,429.7211880498501
1703230295537,125.73732390119196,0.4861867989800006,430.8869910498501
1703230295551,125.98229640119196,0.5774239789800006,432.0529600498501
1703230295565,126.23020770119196,0.7093516789800006,433.2175000498501
1703230295579,126.48231200119196,0.8694971789800006,434.3777570498501
1703230295593,126.73568940119196,1.0474705789800005,435.5294720498501
1703230295607,126.98857920119195,1.2291885789800006,436.67029804985015
1703230295621,127.24179080119195,1.4044112789800005,437.7986110498501
1703230295635,127.49505230119196,1.5656804789800003,438.9100650498501
1703230295648,127.74843990119196,1.7072826789800004,440.0054530498501
1703230295662,128.00317260119195,1.8273108789800003,441.0859630498501
1703230295676,128.26035480119194,1.9345131789800003,442.1588620498501
1703230295690,128.52046460119195,2.03598257898,443.22930604985015
1703230295704,128.78453730119196,2.13411158898,444.30013204985016
1703230295718,129.05406160119196,2.22732278898,445.37198104985015
1703230295733,129.32815220119195,2.30963073898,446.44424404985017
1703230295745,129.60561110119195,2.37613717898,447.51534904985016
1703230295759,129.88651410119195,2.42273022898,448.58478704985015
1703230295773,130.17185990119194,2.44647469898,449.65266104985017
1703230295787,130.46311380119192,2.44658927128,450.7202820498501
1703230295801,130.76081570119192,2.42444218128,451.79044904985017
1703230295816,131.06430330119193,2.38207941128,452.86569404985016
1703230295829,131.3725983011919,2.31654767128,453.94641504985015
1703230295843,131.6852032011919,2.22486064128,455.0297690498501
1703230295856,132.00341060119192,2.11298554128,456.1146660498501
1703230295870,132.3263874011919,1.99126274128,457.2025880498501
1703230295885,132.6539098011919,1.86010514128,458.2942530498501
1703230295898,132.9862657011919,1.7174574412799997,459.3872910498501
1703230295911,133.32308160119192,1.5654804412799996,460.4771460498501
1703230295926,133.6649676011919,1.4076428412799995,461.5625400498501
1703230295940,134.0129538011919,1.2511059412799996,462.6447670498501
1703230295954,134.3689768011919,1.1052358412799996,463.7281150498501
1703230295968,134.7345707011919,0.9755002412799996,464.8177210498501
1703230295982,135.1122447011919,0.8633193412799995,465.9179630498501
1703230295996,135.50424170119192,0.7655370312799995,467.02860304985006
1703230296009,135.91142990119192,0.6742577612799995,468.14599104985007
1703230296024,136.33040530119192,0.5842945012799995,469.26586204985006
1703230296037,136.75845010119193,0.4927523812799995,470.38858304985007
1703230296051,137.19451920119192,0.3994882312799995,471.51515904985007
1703230296065,137.63644020119193,0.3019906712799995,472.6424200498501
1703230296079,138.08177860119193,0.2010960712799995,473.76583504985007
1703230296092,138.52684760119192,0.1124510412799995,474.88272904985007
1703230296106,138.9666591011919,0.0486105512799995,475.99242604985005
1703230296120,139.40041570119192,0.0137048312799995,477.09737604985
1703230296135,139.8292172011919,0.0295875612799995,478.20337504985
1703230296149,140.2541537011919,0.0998186012799995,479.31531704985
1703230296162,140.6786316011919,0.2152661012799995,480.43640804985
1703230296176,141.10198190119192,0.3632604012799995,481.56112904985
1703230296190,141.52285000119193,0.5276381012799994,482.6849260498501
1703230296204,141.94111110119192,0.6951566012799995,483.80473104985
1703230296217,142.3575574011919,0.8571287012799995,484.9190530498501
1703230296231,142.77180840119192,1.0108697012799994,486.02792404985007
1703230296245,143.1808262011919,1.154006401279999,487.13219304985006
1703230296259,143.5832700011919,1.2878120012799994,488.2318560498501
1703230296273,143.9793261011919,1.412986801279999,489.3247060498501
1703230296287,144.3707407011919,1.5280308012799992,490.40786004985006
1703230296301,144.75972910119188,1.6314804012799993,491.47910504985
1703230296315,145.14746770119189,1.722051421279999,492.54025904985
1703230296328,145.5334814011919,1.8019580112799995,493.59470904985
1703230296342,145.9177144011919,1.8721851312799995,494.64745704985
1703230296356,146.3001405011919,1.93318343128,495.70227804985
1703230296371,146.6799674011919,1.98225390128,496.75933604985
1703230296384,147.0575452011919,2.0137389912799994,497.81745704985
1703230296399,147.43285250119192,2.0257461612799994,498.87615504985
1703230296412,147.8058405011919,2.0158519472799994,499.93462904985
1703230296426,148.1773495011919,1.9873233972799995,500.99432904985
1703230296441,148.5486716011919,1.94391116728,502.05733304985
1703230296454,148.9195396011919,1.8887083072799995,503.12581004985
1703230296468,149.2897911011919,1.82329018728,504.20040604985
1703230296481,149.6588489011919,1.746811127279999,505.28160304984993
1703230296495,150.0261930011919,1.6598461972799994,506.3688980498499
1703230296509,150.3903068011919,1.5623638772799997,507.4618030498499
1703230296523,150.74954040119192,1.4553844772799995,508.5594950498499
1703230296537,151.10318110119192,1.3423324772799996,509.6625270498498
1703230296551,151.45239760119193,1.2289117772799996,510.7724570498499
1703230296565,151.79793000119193,1.1217232772799997,511.8915530498499
1703230296579,152.14175860119192,1.0239693972799997,513.0224820498499
1703230296592,152.48311160119192,0.9371958772799996,514.1648260498499
1703230296607,152.82128100119192,0.8620172572799997,515.3182510498499
1703230296620,153.1544846011919,0.7969785672799997,516.4830770498498
1703230296634,153.4802783011919,0.7392251672799998,517.6574160498499
1703230296648,153.7973317011919,0.6842886272799997,518.8360520498499
1703230296662,154.1055830011919,0.6352634972799998,520.0119520498498
1703230296677,154.4072329011919,0.6014206272799998,521.1816670498498
1703230296690,154.7030231011919,0.5867999072799998,522.3455480498498
1703230296703,154.99643120119188,0.5954592762799997,523.5090200498497
1703230296718,155.2888792011919,0.6438917362799997,524.6758650498497
1703230296732,155.5815297011919,0.7345297362799997,525.8465070498497
1703230296745,155.8739107011919,0.8554337362799997,527.0170530498497
1703230296759,156.1617772011919,0.9955727362799998,528.1780640498497
1703230296773,156.44081770119192,1.1451252362799995,529.3257380498497
1703230296787,156.71006460119193,1.2957826362799998,530.4590070498498
1703230296802,156.97326760119194,1.4440448362799998,531.5775210498498
1703230296815,157.23516880119195,1.5895221362799998,532.6824910498498
1703230296829,157.49778110119195,1.73061423628,533.7735430498498
1703230296843,157.76081260119196,1.86804593628,534.8512670498498
1703230296856,158.02347810119196,2.00317553628,535.9194630498497
1703230296871,158.28785750119195,2.13624833628,536.9824640498497
1703230296885,158.55600820119196,2.26646883628,538.0430860498496
1703230296898,158.82869160119196,2.38940363628,539.1029230498497
1703230296912,159.10380030119197,2.49923763628,540.1612300498497
1703230296926,159.37860690119197,2.5901802762800004,541.2160080498497
1703230296940,159.65316610119197,2.65746128628,542.2674080498497
1703230296953,159.92939080119197,2.7011691362800003,543.3159910498497
1703230296967,160.20823860119197,2.7227000662800003,544.3625240498496
1703230296981,160.49015400119197,2.7204798202800005,545.4071640498496
1703230296996,160.77518710119196,2.6943678602800003,546.4498050498496
1703230297009,161.06365390119197,2.6440179402800004,547.4880990498496
1703230297022,161.35546130119198,2.57297125028,548.5207940498495
1703230297038,161.65062670119198,2.48058611028,549.5460190498495
1703230297051,161.94785320119198,2.36905711028,550.5645330498495
1703230297066,162.24857190119198,2.24444531028,551.5809690498495
1703230297079,162.55426090119198,2.1109695102800003,552.5990130498495
1703230297092,162.86637270119198,1.9711293102800005,553.6207730498495
1703230297107,163.185248301192,1.82355991028,554.6444850498495
1703230297121,163.511294101192,1.66735611028,555.6674010498496
1703230297136,163.84426550119198,1.50502241028,556.6893170498496
1703230297148,164.18359120119197,1.34144831028,557.7111910498496
1703230297162,164.52998610119198,1.18034941028,558.7333070498496
1703230297176,164.88465320119198,1.02714591028,559.7547180498495
1703230297190,165.24824460119197,0.88665041028,560.7742440498496
1703230297204,165.62163660119197,0.76139771028,561.7918600498496
1703230297218,166.00408160119196,0.65311611028,562.8080180498496
1703230297232,166.39345690119197,0.5607380202800001,563.8230800498495
1703230297245,166.78811150119196,0.4849402302800001,564.8370210498496
1703230297259,167.18625570119195,0.4297601402800001,565.8504820498496
1703230297273,167.58489840119196,0.4025837402800001,566.8645400498496
1703230297287,167.98001930119196,0.4030066133800001,567.8803950498495
1703230297303,168.37187360119196,0.4261113933800001,568.9009900498495
1703230297315,168.76077170119197,0.4801614933800001,569.9296980498495
1703230297329,169.14652740119195,0.56124862338,570.9679950498496
1703230297342,169.52894930119197,0.6619981233800001,572.0157990498496
1703230297356,169.90819330119197,0.7712743233800001,573.0670270498497
1703230297370,170.28500860119198,0.8833087233800001,574.1186720498497
1703230297384,170.65840920119197,0.99555542338,575.1687310498497
1703230297398,171.026262401192,1.10096542338,576.2153840498497
1703230297412,171.386482801192,1.1995238033800002,577.2579680498498
1703230297426,171.735940701192,1.29445501338,578.2959580498498
1703230297440,172.074519801192,1.38718278338,579.3308430498498
1703230297455,172.404056301192,1.48132753338,580.3622670498498
1703230297468,172.727922801192,1.57548572338,581.3919180498498
1703230297481,173.048362501192,1.66814570338,582.4202450498498
1703230297495,173.365862601192,1.75608265338,583.4492410498498
1703230297509,173.67948640119198,1.83681278338,584.4789930498498
1703230297523,173.98914050119197,1.90371340338,585.5099110498498
1703230297537,174.29659100119196,1.95026742338,586.5422790498499
1703230297551,174.60229860119196,1.97220668338,587.5765640498498
1703230297565,174.90526550119196,1.96466396638,588.6142690498498
1703230297579,175.20483080119195,1.92902687638,589.6567450498497
1703230297593,175.50155390119198,1.86988436638,590.7059350498497
1703230297607,175.79654220119198,1.79303398638,591.7642670498496
1703230297620,176.09072620119198,1.70143282638,592.8319840498497
1703230297634,176.384056401192,1.59681302638,593.9067530498496
1703230297648,176.673976701192,1.48087002638,594.9860100498496
1703230297662,176.958243201192,1.35820162638,596.0672490498496
1703230297676,177.235391801192,1.23233342638,597.1497370498496
1703230297691,177.506291101192,1.10509732638,598.2331340498496
1703230297704,177.772608001192,0.9781221263800002,599.3175710498496
1703230297717,178.034005101192,0.8544964263800001,600.4036450498496
1703230297733,178.288600401192,0.7394690263800001,601.4921860498496
1703230297745,178.53482600119202,0.6335593263800001,602.5838630498496
1703230297759,178.77217380119205,0.5359945963800001,603.6788910498495
1703230297773,179.00037120119202,0.4471512463800001,604.7775750498496
1703230297787,179.22112260119204,0.3664199463800001,605.8802790498496
1703230297801,179.43434000119203,0.2924084963800001,606.9865350498496
1703230297815,179.63917230119202,0.2254852263800001,608.0942490498496
1703230297829,179.834656401192,0.1654211463800001,609.1995020498496
1703230297843,180.022097701192,0.1214278363800001,610.2993490498495
1703230297856,180.204693101192,0.1047505663800001,611.3946270498495
1703230297871,180.387431301192,0.1200671663800001,612.4882980498495
1703230297884,180.576699801192,0.1698475163800001,613.5846990498495
1703230297899,180.775213701192,0.2588689863800001,614.6892420498496
1703230297912,180.981647601192,0.3821981863800001,615.8034230498496
1703230297926,181.193598401192,0.5199710863800001,616.9222020498496
1703230297940,181.408950701192,0.6579148863800002,618.0370850498496
1703230297954,181.625429801192,0.7853246863800002,619.1429150498495
1703230297968,181.843817701192,0.8966440863800001,620.2387190498496
1703230297981,182.064560901192,0.9919545763800002,621.3244600498496
1703230297996,182.288267901192,1.0740884863800002,622.4007710498496
1703230298009,182.514130901192,1.1466608363800002,623.4663940498496
1703230298022,182.741743501192,1.2159876363800002,624.5236780498495
1703230298036,182.970838801192,1.28952379638,625.5756240498496
1703230298050,183.201179301192,1.3708840263800002,626.6256080498496
1703230298064,183.432089001192,1.45685145638,627.6740400498496
1703230298079,183.662945601192,1.5411421063800002,628.7194970498497
1703230298093,183.893689201192,1.6186560363800002,629.7603620498497
1703230298107,184.124874501192,1.6865804863800002,630.7975390498498
1703230298120,184.357772501192,1.7435450563800003,631.8335310498497
1703230298134,184.594224801192,1.7857290163800004,632.8703030498498
1703230298148,184.834549501192,1.8093771163800003,633.9081260498498
1703230298163,185.078571701192,1.8100559294800005,634.9463800498498
1703230298176,185.326657201192,1.7845814194800005,635.9843340498498
1703230298190,185.579001501192,1.7333323494800004,637.0215350498498
1703230298204,185.834865601192,1.6584419494800005,638.0579690498498
1703230298218,186.094144601192,1.5623871494800006,639.0938570498498
1703230298232,186.357727701192,1.4466984494800006,640.1279320498498
1703230298245,186.625967601192,1.3137851494800006,641.1593980498499
1703230298259,186.900071701192,1.1663637494800003,642.1895760498498
1703230298273,187.180392301192,1.0110395494800006,643.2212650498499
1703230298288,187.466814401192,0.8572732494800006,644.2573680498499
1703230298301,187.759632801192,0.7091673494800006,645.2990940498499
1703230298315,188.059452901192,0.5649846494800006,646.34410704985
1703230298328,188.367083501192,0.4204888494800006,647.3885700498499
1703230298342,188.682664601192,0.2757082494800006,648.4307790498499
1703230298356,189.00620360119203,0.1349152494800006,649.4737610498499
1703230298370,189.33772090119203,0.0031010494800006,650.5196910498499
1703230298384,189.67600110119204,-0.1191552505199993,651.56741004985
1703230298398,190.02008010119204,-0.2283661505199993,652.61450804985
1703230298412,190.36691210119204,-0.3182562105199993,653.65915804985
1703230298426,190.71310190119203,-0.3802489105199994,654.7021840498501
1703230298440,191.05617650119203,-0.4093223805199993,655.7442650498501
1703230298454,191.39768780119203,-0.3990446905199993,656.7880480498501
1703230298468,191.73886450119204,-0.3345830405199994,657.8357620498501
1703230298481,192.08088280119205,-0.2229389405199993,658.8883460498502
1703230298495,192.42245450119205,-0.0796251405199993,659.9430890498502
1703230298509,192.75990770119205,0.0810523594800006,660.9916090498502
1703230298523,193.08975580119204,0.2442340594800006,662.0272080498503
1703230298537,193.41052590119205,0.3998529594800006,663.0496030498502
1703230298551,193.7222190011921,0.5472341594800006,664.0620940498502
1703230298565,194.0234572011921,0.6891888594800006,665.0700890498503
1703230298579,194.3141253011921,0.8217325594800007,666.0765560498503
1703230298592,194.5944657011921,0.9452352594800006,667.0801570498503
1703230298606,194.86569710119207,1.0605539594800006,668.0779280498502
1703230298620,195.13091040119207,1.1713559594800007,669.0702087498503
1703230298634,195.39190920119208,1.2788624594800009,670.0583588498503
1703230298648,195.6505152011921,1.3801238594800007,671.0430665498502
1703230298662,195.90747210119207,1.4731925394800007,672.0241283498502
1703230298676,196.16329020119207,1.5554933394800008,673.0022066498502
1703230298689,196.41746050119207,1.627209049480001,673.9784899498502
1703230298704,196.6708256011921,1.6885757494800009,674.9550487498502
1703230298717,196.9245895011921,1.738675199480001,675.9337752498502
1703230298732,197.1795727011921,1.775574789480001,676.9147830498503
1703230298745,197.4358221011921,1.797543869480001,677.8971275498502
1703230298759,197.69163160119209,1.804580851480001,678.8798495498502
1703230298773,197.9450569011921,1.797807614480001,679.8633090498502
1703230298787,198.19525040119208,1.777253344480001,680.8481402498502
1703230298801,198.44276300119205,1.7448546744800009,681.8339901498501
1703230298815,198.68794490119205,1.7019027344800008,682.8205022498502
1703230298828,198.93002320119209,1.647698884480001,683.8083324498501
1703230298842,199.16790030119205,1.581796894480001,684.7983716498501
1703230298856,199.40139080119204,1.508118454480001,685.7925205498501
1703230298870,199.62957000119204,1.430572524480001,686.7923872498501
1703230298884,199.85160650119204,1.350331704480001,687.7984192498501
1703230298897,200.06778370119204,1.267326514480001,688.8083382498501
1703230298911,200.27822490119203,1.182901254480001,689.8199832498501
1703230298925,200.48252740119204,1.0994277844800011,690.8334112498501
1703230298940,200.67966380119205,1.0215253844800012,691.8514622498501
1703230298953,200.86971880119205,0.9545279644800012,692.8777462498501
1703230298967,201.05467930119204,0.8983870244800012,693.9127762498501
1703230298981,201.23614150119204,0.8493358144800012,694.9547572498501
1703230298995,201.41442400119203,0.8037789844800012,695.9979192498502
1703230299009,201.58803880119203,0.7666061844800012,697.0374502498502
1703230299023,201.75662970119205,0.7432871344800012,698.0718732498501
1703230299037,201.92088350119204,0.7366470454800012,699.1019392498501
1703230299051,202.08522370119204,0.7505598254800011,700.1282232498502
1703230299065,202.25481260119204,0.7941403054800011,701.1535062498501
1703230299078,202.43112820119205,0.8693034454800012,702.1801862498502
1703230299093,202.6138455011921,0.9662610854800012,703.2096062498501
1703230299107,202.80043130119205,1.0770587854800011,704.2388922498501
1703230299120,202.9880556011921,1.1937139854800012,705.2644912498502
1703230299134,203.17636280119208,1.3093819854800013,706.2847532498502
1703230299148,203.36600190119205,1.4227510854800012,707.2966032498501
1703230299161,203.55908200119205,1.5337156854800011,708.3013852498501
1703230299176,203.75803870119205,1.6503075854800011,709.3024712498501
1703230299191,203.9639100011921,1.775218085480001,710.3021912498501
1703230299204,204.17662340119207,1.906827785480001,711.2988753498502
1703230299217,204.39434220119207,2.039329485480001,712.2882269498501
1703230299231,204.61510860119208,2.165954685480001,713.2672390498501
1703230299245,204.83875530119207,2.283855785480001,714.2365124498501
1703230299259,205.06587920119208,2.394196585480001,715.2002541498501
1703230299273,205.2981437011921,2.4965726854800008,716.1623967498501
1703230299286,205.5368938011921,2.587103575480001,717.1246570498502
1703230299301,205.78148710119208,2.6617316354800007,718.0860023498501
1703230299314,206.03122440119208,2.714546875480001,719.0448662498501
1703230299329,206.2850881011921,2.742599705480001,720.00210424985
1703230299342,206.5428971011921,2.7452263284800007,720.95936434985
1703230299356,206.8050195011921,2.7253874384800008,721.91849404985
1703230299371,207.0713328011921,2.6833907684800007,722.88089474985
1703230299384,207.3418410011921,2.6186530984800007,723.84556764985
1703230299398,207.6155772011921,2.5349358084800007,724.81087764985
1703230299412,207.8930962011921,2.4361098984800007,725.77606814985
1703230299426,208.1757295011921,2.326426298480001,726.74128194985
1703230299439,208.4648530011921,2.209007898480001,727.7069799498499
1703230299453,208.7612641011921,2.0850548984800006,728.6724254498499
1703230299468,209.06520880119209,1.9545498984800005,729.63798034985
1703230299481,209.3766206011921,1.8208894984800008,730.60331724985
1703230299495,209.69567950119207,1.6908287984800006,731.5669082498499
1703230299509,210.02400790119208,1.5679754984800005,732.5273527498499
1703230299522,210.36352910119209,1.4543900984800004,733.4850223498499
1703230299537,210.7170748011921,1.3510540984800004,734.44222014985
1703230299551,211.0850795011921,1.2571971684800003,735.39998504985
1703230299566,211.4640751011921,1.1691555984800004,736.35614324985
1703230299578,211.85094030119208,1.0848825484800004,737.30612924985
1703230299592,212.2429472011921,1.0059058284800004,738.24754284985
1703230299606,212.6386996011921,0.9385263284800004,739.1793845498499
1703230299620,213.03604820119207,0.8867503584800004,740.1042143498499
1703230299634,213.4325164011921,0.8520017584800004,741.0234738498499
1703230299649,213.8254724011921,0.8372821284800004,741.9375184498499
1703230299662,214.2123383011921,0.8538103384800004,742.8455278498499
1703230299676,214.59154520119208,0.9039143484800004,743.7464134498499
1703230299689,214.96469140119208,0.9778812084800004,744.6418623498499
1703230299703,215.33329610119208,1.0697156484800003,745.5318384498499
1703230299717,215.69838440119207,1.1676817184800004,746.4178781498499
1703230299731,216.05839170119208,1.2656287484800004,747.3016691498499
1703230299745,216.40990780119208,1.3595651684800003,748.1836071498499
1703230299759,216.74990800119207,1.4451762484800004,749.0612333498499
1703230299773,217.0773749011921,1.5210746084800004,749.9314638498499
1703230299787,217.3932815011921,1.5882240584800005,750.7925436498499
1703230299802,217.70119750119207,1.6497109684800004,751.6466439498499
1703230299814,218.00454350119207,1.7101530384800003,752.49719454985
1703230299828,218.3061189011921,1.7734652084800002,753.3475004498499
1703230299843,218.60874270119209,1.83977194848,754.2003243498499
1703230299856,218.91434190119205,1.90587096848,755.0561205498499
1703230299870,219.22416370119203,1.96689435848,755.9142584498499
1703230299884,219.53917710119205,2.01780340848,756.7747743498498
1703230299898,219.85803480119205,2.05473290848,757.6366473498498
1703230299912,220.17909660119204,2.07573739848,758.4972169498498
1703230299925,220.50173220119208,2.07837328148,759.3558182498498
1703230299939,220.8253129011921,2.06380962148,760.2123195498498
1703230299954,221.1506933011921,2.03407804148,761.0686103498498
1703230299967,221.4792215011921,1.99306459148,761.9282328498498
1703230299981,221.81023870119205,1.94393788148,762.7933767498498
1703230299995,222.14269520119203,1.88900969148,763.6648939498498
1703230300009,222.47388390119207,1.82716891148,764.5418852498498
1703230300023,222.80254160119208,1.75823329148,765.4230552498498
1703230300037,223.12766000119208,1.68256873148,766.3063360498497
1703230300051,223.4495177011921,1.59999403148,767.1901925498497
1703230300064,223.7682966011921,1.51121133148,768.0743964498497
1703230300078,224.0848744011921,1.41787023148,768.9602993498497
1703230300092,224.3988655011921,1.32398070148,769.8503984498498
1703230300107,224.7098145011921,1.23418177148,770.7467372498497
1703230300120,225.01754660119207,1.14915662148,771.6499798498497
1703230300134,225.32214300119213,1.06679111148,772.5587147498497
1703230300148,225.6239877011921,0.98513538148,773.4712712498498
1703230300162,225.92249150119213,0.90223411148,774.3883745498498
1703230300175,226.2179703011921,0.8161735914799999,775.3113648498498
1703230300190,226.51025870119213,0.7274354614799999,776.2397750498499
1703230300203,226.8003166011921,0.6428872914799999,777.1714450498499
1703230300217,227.0901073011921,0.5725984914799999,778.10393804985
1703230300232,227.3819083011921,0.5154803714799998,779.0331851498499
1703230300245,227.6799869011921,0.4836959314799998,779.9582116498499
1703230300259,227.9859502011921,0.4946362814799998,780.8818460498499
1703230300273,228.3005135011921,0.5479308814799998,781.8089374498499
1703230300287,228.6262309011921,0.6369552314799998,782.7418446498499
1703230300301,228.9636081011921,0.7550106314799998,783.6735643498499
1703230300314,229.3095053011921,0.8843925314799999,784.5962256498499
1703230300328,229.6620047011921,1.01108873148,785.5010288498498
1703230300344,230.0187174011921,1.1290743314799998,786.3831571498498
1703230300356,230.3801903011921,1.2357358314799998,787.2415203498498
1703230300370,230.7499867011921,1.3357265014799995,788.0795834498498
1703230300384,231.1300552011921,1.4384864014799996,788.9013210498498
1703230300398,231.5221276011921,1.5472115014799996,789.7104518498498
1703230300411,231.9266159011921,1.6621443014799997,790.5083296498499
1703230300424,232.3425104011921,1.7770424014799997,791.2949663498499
1703230300439,232.7681839011921,1.88575730148,792.0704261498499
1703230300452,233.20205430119208,1.98442454148,792.83563154985
1703230300467,233.64594010119208,2.06943990148,793.59215814985
1703230300481,234.1008903011921,2.13927024148,794.34182404985
1703230300495,234.5671344011921,2.19260244148,795.08683884985
1703230300509,235.0439231011921,2.2286449914799995,795.82797634985
1703230300522,235.5296466011921,2.2455740414799994,796.56433694985
1703230300536,236.0231688011921,2.2406951664799992,797.2938263498501
1703230300549,236.5239599011921,2.213086906479999,798.0127016498501
1703230300564,237.03106250119208,2.166158526479999,798.7193492498501
1703230300579,237.5453148011921,2.102201106479999,799.4133678498501
1703230300591,238.0663773011921,2.024942396479999,800.0955149498501
1703230300606,238.5947396011921,1.9383545664799988,800.7648963498501
1703230300620,239.13207300119208,1.8436461764799987,801.4200231498501
1703230300634,239.6774398011921,1.7421498764799987,802.05986234985
1703230300647,240.22906410119208,1.636770176479999,802.68612414985
1703230300661,240.7864046011921,1.5310113764799986,803.30043664985
1703230300675,241.3502225011921,1.4269053764799986,803.90309954985
1703230300688,241.9238884011921,1.3236713764799986,804.4939687498501
1703230300703,242.5082408011921,1.2194619764799983,805.0714359498501
1703230300717,243.1005409011921,1.1112325764799986,805.6359333498501
1703230300731,243.69892900119208,0.9957558764799986,806.1877780498501
1703230300745,244.3032259011921,0.8726146764799987,806.7258845498501
1703230300758,244.9144001011921,0.7435832764799987,807.2498463498501
1703230300772,245.53403700119208,0.6121430764799987,807.7607581498502
1703230300786,246.16176710119208,0.4784020764799986,808.2583597498502
1703230300801,246.79673260119208,0.3433382764799986,808.7428068498502
1703230300815,247.43707410119208,0.2188434764799986,809.2170934498503
1703230300829,248.08068020119208,0.1128259764799986,809.6841645498503
1703230300842,248.7241286011921,0.0221185064799986,810.1455511498502
1703230300855,249.3712701011921,-0.0384991835200013,810.6028487498502
1703230300869,250.02736950119208,-0.0441809985200013,811.0610434498502
1703230300884,250.6966032011921,0.0034335114799986,811.5232819498502
1703230300898,251.3782404011921,0.0839028114799986,811.9866389498502
1703230300911,252.0637867011921,0.1867629114799986,812.4511377498502
1703230300924,252.7477256011921,0.2980166114799986,812.9165515498502
1703230300938,253.4292920011921,0.4056691114799986,813.3812804498501
1703230300952,254.1064493011921,0.5017821014799986,813.8422717498502
1703230300967,254.7775552011921,0.5810078914799985,814.2993023498502
1703230300981,255.44242350119208,0.6469149514799986,814.7529012498502
1703230300994,256.10250570119206,0.7041471114799985,815.2042773498501
1703230301009,256.7634881011921,0.7575770614799985,815.6542991498501
1703230301022,257.4296825011921,0.8130821014799985,816.1021166498501
1703230301036,258.1020151011921,0.8689357414799985,816.5456290498502
1703230301051,258.7782563011921,0.9185911314799984,816.9823326498502
1703230301064,259.45647850119207,0.9575254714799984,817.4105476498502
1703230301077,260.1371508011921,0.9847162014799984,817.8297850498502
1703230301091,260.8216966011921,1.0033521014799984,818.2400399498503
1703230301105,261.5123739011921,1.0164985814799985,818.6407541498503
1703230301119,262.2085560011921,1.0255110194799986,819.0314884498503
1703230301134,262.9076111011921,1.0323763944799986,819.4111129498502
1703230301147,263.6100772011921,1.0412408264799986,819.7816846498503
1703230301161,264.3190123011921,1.0568215764799986,820.1441436498502
1703230301175,265.0369550011921,1.0818854764799986,820.4980270498502
1703230301188,265.7632918011921,1.1134144864799986,820.8425542498502
1703230301204,266.49509890119214,1.1441956364799986,821.1761800498502
1703230301217,267.2294770011921,1.1675964164799986,821.4992098498502
1703230301231,267.96556450119215,1.1804583164799989,821.8136840498502
1703230301245,268.70553290119216,1.1818224734799987,822.1222254498501
1703230301258,269.4539241011922,1.172716385479999,822.4273269498501
1703230301272,270.2145044011922,1.1550834054799988,822.7315313498501
1703230301285,270.9886927011922,1.129228535479999,823.0372341498501
1703230301300,271.7755558011922,1.0929570254799987,823.34568824985
1703230301314,272.5722430011922,1.0427947154799988,823.65709664985
1703230301327,273.3739586011922,0.9776042554799989,823.96941604985
1703230301341,274.1773860011922,0.8959181954799988,824.28078474985
1703230301355,274.9839327011922,0.8028297954799989,824.58999954985
1703230301369,275.7985793011922,0.7074430154799989,824.89853544985
1703230301383,276.6266395011922,0.6176679854799989,825.20788914985
1703230301397,277.4702404011922,0.5360691054799989,825.51870284985
1703230301412,278.3269157011922,0.4611471354799988,825.82975224985
1703230301424,279.1888143011922,0.3853888254799988,826.13886254985
1703230301439,280.05018680119224,0.3010478154799988,826.44455264985
1703230301452,280.90678050119226,0.2049993454799988,826.74599484985
1703230301466,281.75901820119225,0.1055628154799988,827.04202684985
1703230301480,282.60976520119226,0.0163107054799988,827.33118544985
1703230301494,283.4604177011923,-0.0523291545200011,827.6111374498499
1703230301508,284.3140962011923,-0.0875823745200011,827.8794353498499
1703230301522,285.1773465011923,-0.0755393645200011,828.13604534985
1703230301536,286.0568931011923,-0.0097869745200011,828.3824741498499
1703230301550,286.95519340119233,0.0970456254799988,828.61801244985
1703230301564,287.8653795011923,0.2252033254799988,828.83952464985
1703230301578,288.7775494011923,0.3606861254799989,829.04345794985
1703230301593,289.6862027011923,0.4875046254799989,829.22937804985
1703230301606,290.5900022011923,0.5966628254799989,829.3969698498499
1703230301619,291.4875224011923,0.686367715479999,829.54659804985
1703230301633,292.3785391011923,0.757863015479999,829.67876064985
1703230301647,293.2624692011923,0.811998335479999,829.79428654985
1703230301661,294.1413114011923,0.855397875479999,829.89542644985
1703230301675,295.0178519011923,0.8933574454799991,829.98326271985
1703230301689,295.8935242011923,0.926220615479999,830.05935692985
1703230301702,296.7686532011923,0.950570685479999,830.12532525985
1703230301716,297.6439066011923,0.965143755479999,830.18219300985
1703230301730,298.52061210119234,0.970029942479999,830.23037781985
1703230301744,299.40076360119235,0.9664607494799988,830.27036123985
1703230301758,300.28521830119234,0.954277209479999,830.30157979985
1703230301772,301.1734891011924,0.934962759479999,830.3237566598499
1703230301786,302.06496480119233,0.9065510794799988,830.3389172498499
1703230301800,302.95820010119235,0.8672642194799989,830.34717592085
1703230301813,303.8518324011923,0.8181718194799988,830.34736111245
1703230301828,304.7464082011923,0.7601834294799988,830.33883842345
1703230301841,305.6432039011923,0.6944882494799989,830.3210585034501
1703230301855,306.54444340119227,0.6244545294799989,830.2941150034501
1703230301870,307.4533454011923,0.5528293794799989,830.2580085634501
1703230301884,308.3710211011923,0.4818938694799989,830.2132401134501
1703230301898,309.2964436011923,0.4079560094799989,830.1583325534501
1703230301911,310.2273056011923,0.3265641494799989,830.0921227334501
1703230301924,311.16229330119234,0.2371618994799988,830.0147076834501
1703230301939,312.1021873011923,0.1403850094799988,829.9257979034501
1703230301952,313.0478851011923,0.0389852094799988,829.8254401034501
1703230301967,313.99907820119233,-0.0635972905200011,829.7117982034501
1703230301982,314.95415920119234,-0.1667539905200011,829.5827619034501
1703230301994,315.9116139011924,-0.2686633905200011,829.43802550345
1703230302009,316.8721172011924,-0.3657955805200011,829.27724080345
1703230302022,317.8369137011924,-0.4543106205200011,829.10058200345
1703230302036,318.8068744011924,-0.5299673205200011,828.9087376034499
1703230302050,319.7811999011924,-0.5910906105200011,828.7026834034499
1703230302064,320.7555728011924,-0.6397903105200011,828.4835589034499
1703230302077,321.7239698011924,-0.6813655005200011,828.2539114034498
1703230302091,322.68466680119235,-0.7079778105200011,828.0166801034499
1703230302105,323.6400358011924,-0.7080358281900011,827.7757081034498
1703230302119,324.5921910011924,-0.6863780581900011,827.5355995034498
1703230302133,325.5438774011924,-0.639235168190001,827.2970145034499
1703230302147,326.4990203011924,-0.5531307481900011,827.0599831034499
1703230302160,327.4588047011924,-0.4348421481900011,826.8246348034498
1703230302174,328.4204755011924,-0.2931910481900011,826.5893479034498
1703230302188,329.38035540119233,-0.1374453481900011,826.3536934034498
1703230302203,330.3355142011923,0.0207724518099989,826.1169079034498
1703230302217,331.28371310119235,0.1744783518099989,825.8789223034498
1703230302230,332.2238237011924,0.3194915518099989,825.6417599034498
1703230302244,333.15671870119235,0.4558324518099989,825.4076746034499
1703230302258,334.0817458011924,0.5822176518099988,825.1809400034499
1703230302272,334.99958740119234,0.6956518518099989,824.9635009034499
1703230302286,335.9092310011923,0.7990304518099989,824.7568580034499
