time,rotate_x,rotate_y,rotate_z,angularVelocity_x,angularVelocity_y,angularVelocity_z,velocity_x,velocity_y,velocity_z,acceleration_x,acceleration_y,acceleration_z,position_x,position_y,position_z
2023-12-22 07:31:17.756999936,-0.09494624,-0.08280444,-0.001279134,0.1564587,0.1049544,-0.02509779,-0.01285957,0.03206445,0.01742808,-0.01285957,0.03206445,0.01742808,1.952971,2.55652,-3.787472
2023-12-22 07:31:17.768999936,-0.08664222,-0.06848019,-0.006328411,0.07763117,0.213824,-0.03932278,-0.01926997,0.02015812,0.02365155,-0.03212954,0.05222257,0.04107963,1.949789,-0.07562916,-3.784767
2023-12-22 07:31:17.783000064,-0.08770542,-0.06686279,-0.006682301,0.03561266,0.2133638,-0.02298317,-0.02060402,0.01639379,0.02181539,-0.05273356,0.06861636,0.06289502,1.949266,-0.07570243,-3.784826
2023-12-22 07:31:17.803000064,-0.08864562,-0.06404194,-0.007282909,-0.002113196,0.236169,-0.004312742,-0.02433515,0.01211207,0.01962376,-0.07706871,0.08072843,0.08251878,1.948477,-0.07551513,-3.784691
2023-12-22 07:31:17.821000192,-0.0885048,-0.06103027,-0.007461552,-0.009701646,0.2716391,0.01436753,-0.02867294,0.009652706,0.01978599,-0.1057416499999999,0.090381136,0.10230477,1.947787,-0.07562233,-3.784619
2023-12-22 07:31:17.840000000,-0.08894287,-0.05798557,-0.007063095,-0.01383965,0.3056467,0.04145497,-0.03180934,0.005399653,0.02061182,-0.1375509899999999,0.095780789,0.12291659,1.947392,-0.07583422,-3.784435
2023-12-22 07:31:17.857000192,-0.08942188,-0.05541727,-0.006940966,-0.02301008,0.3198633,0.06277167,-0.03319038,0.001649775,0.0210864,-0.1707413699999999,0.097430564,0.14400299,1.946787,-0.07587997,-3.78432
2023-12-22 07:31:17.874000128,-0.08994446,-0.05280092,-0.00672573,-0.03335176,0.327058,0.08245866,-0.03462704,-0.0001204654,0.02065182,-0.2053684099999999,0.0973100986,0.1646548099999999,1.946216,-0.07570939,-3.784271
2023-12-22 07:31:17.891000064,-0.0892643,-0.04994151,-0.006725349,-0.0143832,0.3419237,0.08475094,-0.03557881,0.001404562,0.02014862,-0.2409472199999999,0.0987146606,0.18480343,1.945722,-0.07542475,-3.784282
2023-12-22 07:31:17.908000000,-0.08858366,-0.04768342,-0.006385734,0.01288007,0.3411825,0.09499206,-0.03465631,0.004965301,0.02019308,-0.27560353,0.1036799616,0.20499651,1.945321,-0.07524823,-3.784261
2023-12-22 07:31:17.924999936,-0.08842223,-0.0457491,-0.006023381,0.02894213,0.3194932,0.1039659,-0.03147252,0.007067658,0.01931434,-0.30707605,0.1107476196,0.22431085,1.945066,-0.07507296,-3.784261
2023-12-22 07:31:17.940000000,-0.08846915,-0.04428172,-0.005646423,0.02648916,0.2889355,0.1041903,-0.02721412,0.008136065,0.0182508,-0.33429017,0.1188836846,0.24256165,1.944778,-0.07494974,-3.784257
2023-12-22 07:31:17.956000000,-0.08802493,-0.04311097,-0.005395906,0.03471041,0.2526853,0.0964627,-0.02317258,0.009334913,0.01819684,-0.35746275,0.1282185976,0.26075849,1.944492,-0.07465832,-3.784137
2023-12-22 07:31:17.971000064,-0.0868609,-0.0419535,-0.005573951,0.06390715,0.2255062,0.0772303,-0.01876721,0.01465621,0.01949453,-0.37622996,0.1428748076,0.28025302,1.944284,-0.07416943,-3.78389
2023-12-22 07:31:17.986000128,-0.08469303,-0.04091248,-0.005967177,0.1234849,0.2066146,0.04146901,-0.01461289,0.02208818,0.022483,-0.3908428499999999,0.1649629876,0.30273602,1.944162,-0.07367296,-3.783562
2023-12-22 07:31:18.000999936,-0.08232583,-0.04026946,-0.006395746,0.1923491,0.1844059,0.0005367675,-0.0110114,0.02871487,0.02559031,-0.4018542499999999,0.1936778576,0.32832633,1.944059,-0.07322261,-3.783284
2023-12-22 07:31:18.016000000,-0.08049152,-0.03965247,-0.007112892,0.2250548,0.1628302,-0.03697406,-0.007323764,0.03243975,0.026896,-0.409178014,0.2261176076,0.35522233,1.944057,-0.07282737,-3.783065
2023-12-22 07:31:18.030999808,-0.07917608,-0.03941089,-0.007819755,0.2225492,0.1306405,-0.06300039,-0.004166826,0.03302305,0.02639537,-0.41334484,0.2591406576,0.3816176999999999,1.944087,-0.07250134,-3.782797
2023-12-22 07:31:18.044000000,-0.07827953,-0.03936431,-0.008448733,0.1917337,0.09731933,-0.07833492,-0.001669016,0.03089559,0.02464625,-0.415013856,0.2900362476,0.4062639499999999,1.944136,-0.07227352,-3.782621
2023-12-22 07:31:18.059000064,-0.07782411,-0.03941196,-0.009216471,0.1521701,0.07261448,-0.09173758,0.0006020875,0.02668507,0.02280218,-0.4144117685,0.3167213176,0.4290661299999999,1.944172,-0.07211874,-3.782357
2023-12-22 07:31:18.072999936,-0.07769452,-0.03953198,-0.01004807,0.1046054,0.05229396,-0.09987426,0.002512679,0.02094093,0.02168153,-0.4118990895,0.3376622476,0.4507476599999999,1.944174,-0.07210247,-3.782086
2023-12-22 07:31:18.086999808,-0.0778651,-0.03956914,-0.0104446,0.05822193,0.03895528,-0.09831233,0.004001618,0.0141116,0.02139719,-0.4078974715,0.3517738476,0.4721448499999999,1.94426,-0.07215408,-3.781801
2023-12-22 07:31:18.101999872,-0.0784101,-0.03953218,-0.01084077,0.008897667,0.02565182,-0.0809591,0.004765974,0.006941761,0.02123599,-0.4031314975,0.3587156086,0.4933808399999999,1.944362,-0.07230619,-3.781534
2023-12-22 07:31:18.116000000,-0.07949949,-0.03952372,-0.01084314,-0.04686939,0.0142268,-0.04838824,0.005518668,-0.001167251,0.02070933,-0.3976128295,0.3575483576,0.5140901699999999,1.944478,-0.07261133,-3.781297
2023-12-22 07:31:18.130000128,-0.08129688,-0.03950608,-0.01051793,-0.1104672,0.005036512,-0.009652876,0.006681213,-0.01057886,0.01972706,-0.3909316164999999,0.3469694976,0.5338172299999999,1.9446,-0.07297377,-3.781016
2023-12-22 07:31:18.144000000,-0.08328161,-0.03957304,-0.01019312,-0.1760104,-0.00601855,0.02260411,0.007483161,-0.01896887,0.01877348,-0.3834484554999999,0.3280006276,0.5525907099999999,1.944684,-0.07344673,-3.780763
2023-12-22 07:31:18.157000192,-0.08546573,-0.03948706,-0.009792551,-0.2283977,-0.00708875,0.04635875,0.008004052,-0.02552499,0.01865944,-0.3754444034999999,0.3024756376,0.5712501499999999,1.944792,-0.07393944,-3.780433
2023-12-22 07:31:18.172000000,-0.0877614,-0.03914317,-0.009333452,-0.2618514,-0.008530625,0.0671322,0.008140438,-0.03003775,0.02016626,-0.3673039655,0.2724378876,0.5914164099999999,1.944969,-0.07438248,-3.780014
2023-12-22 07:31:18.186000128,-0.08970243,-0.03907526,-0.008894773,-0.2712138,-0.01026793,0.0831544,0.009347525,-0.03303422,0.0227808,-0.3579564405,0.2394036676,0.6141972099999999,1.945145,-0.07483777,-3.779606
2023-12-22 07:31:18.200000000,-0.09136681,-0.03920355,-0.008895284,-0.2626678,-0.01838319,0.07192642,0.01094649,-0.03313457,0.02468481,-0.3470099505,0.2062690976,0.6388820199999999,1.945351,-0.07519408,-3.779265
2023-12-22 07:31:18.214999808,-0.09244298,-0.03936359,-0.008974059,-0.2367463,-0.02275659,0.04869498,0.01345241,-0.02932253,0.02664714,-0.3335575404999999,0.1769465676,0.66552916,1.945601,-0.07542313,-3.778873
2023-12-22 07:31:18.228000000,-0.09261157,-0.03981212,-0.009370621,-0.1744909,-0.02461663,0.01018318,0.01582581,-0.02366081,0.02864544,-0.3177317305,0.1532857576,0.6941746,1.945817,-0.07564313,-3.778459
2023-12-22 07:31:18.242000128,-0.09273015,-0.04022405,-0.009626167,-0.116095,-0.03315629,-0.01366625,0.01754767,-0.01804192,0.02988979,-0.3001840604999999,0.1352438376,0.72406439,1.946071,-0.07579692,-3.778048
2023-12-22 07:31:18.256000000,-0.09293448,-0.04082698,-0.009538388,-0.07422052,-0.0512857,-0.01541147,0.01916401,-0.01438303,0.02983543,-0.2810200504999999,0.1208608076,0.75389982,1.946365,-0.07596209,-3.777634
2023-12-22 07:31:18.269999872,-0.09304196,-0.04149508,-0.009247964,-0.05099334,-0.06664912,-0.01084771,0.02098221,-0.01231761,0.0283647,-0.2600378404999999,0.1085431976,0.78226452,1.946682,-0.07613019,-3.777314
2023-12-22 07:31:18.284000000,-0.09334416,-0.04206052,-0.009136707,-0.04127005,-0.08216432,-0.003616758,0.02206106,-0.01028461,0.02644016,-0.2379767804999999,0.0982585876,0.8087046800000001,1.947027,-0.0761973,-3.776935
2023-12-22 07:31:18.290999808,-0.09339333,-0.04275101,-0.008761249,-0.03578357,-0.09056439,0.0007799226,0.02240313,-0.009473798,0.02590712,-0.2155736504999999,0.0887847896,0.8346118,1.947385,-0.07633927,-3.776572
2023-12-22 07:31:18.305999872,-0.09356872,-0.04337552,-0.008321205,-0.02393345,-0.09584743,0.01226354,0.02341464,-0.00873588,0.02475807,-0.1921590104999999,0.0800489096,0.85936987,1.947769,-0.07640792,-3.776279
2023-12-22 07:31:18.318000128,-0.09399147,-0.04418376,-0.007850403,-0.02449275,-0.1065937,0.02447472,0.02429476,-0.007472445,0.02324671,-0.1678642504999999,0.0725764646,0.88261658,1.948157,-0.0763754,-3.775922
2023-12-22 07:31:18.332999936,-0.09413172,-0.04535216,-0.006757047,-0.02025338,-0.1295293,0.04218231,0.02537769,-0.005388646,0.02252993,-0.1424865604999999,0.0671878186,0.90514651,1.948589,-0.0763073,-3.775461
2023-12-22 07:31:18.346999808,-0.09375887,-0.04696256,-0.005812885,-0.001355973,-0.1616543,0.05283761,0.02671093,-0.002231089,0.02312749,-0.1157756304999999,0.0649567296,0.928274,1.948977,-0.07624131,-3.774963
2023-12-22 07:31:18.360000000,-0.0930407,-0.04839268,-0.005522599,0.02609946,-0.1822675,0.04129774,0.02842313,0.001541103,0.02424985,-0.0873525004999999,0.0664978326,0.95252385,1.949457,-0.07608346,-3.774514
2023-12-22 07:31:18.374000128,-0.09260876,-0.04972875,-0.005775794,0.04478565,-0.1828712,0.005759953,0.02997047,0.00447921,0.02469119,-0.0573820304999999,0.0709770426,0.97721504,1.949909,-0.07593959,-3.774096
2023-12-22 07:31:18.388000000,-0.09210645,-0.05074367,-0.006254084,0.04800444,-0.1726111,-0.03230249,0.03037841,0.005680993,0.02469699,-0.0270036204999999,0.0766580356,1.00191203,1.950375,-0.07601649,-3.773717
2023-12-22 07:31:18.401999872,-0.09219214,-0.0519681,-0.006725237,0.03675012,-0.161995,-0.05960898,0.03113446,0.004584284,0.0240184,0.0041308395,0.0812423196,1.02593043,1.950853,-0.07606092,-3.773356
2023-12-22 07:31:18.416000000,-0.0924245,-0.05379599,-0.006850842,0.01607639,-0.1791766,-0.06998631,0.03340805,0.003938409,0.02288,0.0375388895,0.0851807286,1.04881043,1.951504,-0.07603537,-3.77293
2023-12-22 07:31:18.430000128,-0.09214675,-0.05635169,-0.007059965,0.0142986,-0.2229247,-0.09107737,0.0370738,0.002819302,0.0223727,0.0746126895,0.0880000306,1.07118313,1.952237,-0.07607448,-3.772447
2023-12-22 07:31:18.444000000,-0.09173849,-0.05927852,-0.007304139,0.02057615,-0.2682239,-0.1098174,0.04185602,0.001758761,0.02299454,0.1164687095,0.0897587916,1.09417767,1.952881,-0.07607321,-3.771954
2023-12-22 07:31:18.456999936,-0.09147753,-0.06201345,-0.007354273,0.02793068,-0.305069,-0.115715,0.04624288,-0.0006174939,0.02352732,0.1627115895,0.0891412977,1.11770499,1.953571,-0.07630543,-3.771394
2023-12-22 07:31:18.471000064,-0.09182705,-0.06466275,-0.006989112,0.01229626,-0.3320577,-0.1036285,0.04873196,-0.003955187,0.02295149,0.2114435495,0.0851861107,1.14065648,1.954373,-0.07654818,-3.77098
2023-12-22 07:31:18.484000000,-0.09293747,-0.0676572,-0.005697336,-0.02342587,-0.371167,-0.06287518,0.0520563,-0.005312911,0.02083472,0.2634998495,0.0798731997,1.1614912000000002,1.955401,-0.07643025,-3.770551
2023-12-22 07:31:18.499000064,-0.09336205,-0.07168579,-0.004520357,-0.04038062,-0.4337687,-0.03129661,0.05808415,-0.003052549,0.01945661,0.3215839995,0.0768206507,1.1809478100000002,1.956563,-0.07611109,-3.770033
2023-12-22 07:31:18.512000000,-0.09168405,-0.07662064,-0.003791787,0.02138519,-0.5088696,-0.04093183,0.06659231,0.004660304,0.0201856,0.3881763095,0.0814809547,1.2011334100000002,1.957739,-0.07536591,-3.769414
2023-12-22 07:31:18.526000128,-0.08881808,-0.0817267,-0.003604496,0.1164363,-0.5698751,-0.09293219,0.0734694,0.01848104,0.0227065,0.4616457095,0.0999619947,1.22383991,1.958942,-0.07442935,-3.768665
2023-12-22 07:31:18.539000064,-0.08444683,-0.08645037,-0.003665788,0.2458763,-0.5987379,-0.1661805,0.07907337,0.03470167,0.02698366,0.5407190795000001,0.1346636647,1.25082357,1.960093,-0.07356291,-3.767987
2023-12-22 07:31:18.552999936,-0.08093176,-0.09118962,-0.003898559,0.3308219,-0.6113749,-0.2143426,0.08192183,0.04674891,0.02969658,0.6226409095000001,0.1814125747,1.28052015,1.961072,-0.07272705,-3.76751
2023-12-22 07:31:18.566999808,-0.07796731,-0.09549335,-0.004063791,0.3656772,-0.6065991,-0.2393436,0.0835606,0.05306987,0.03031224,0.7062015095,0.2344824447,1.31083239,1.962137,-0.07207654,-3.767096
2023-12-22 07:31:18.581000192,-0.07560196,-0.09937683,-0.004030891,0.3664001,-0.5906096,-0.2427288,0.08312856,0.05439558,0.03033856,0.7893300695000001,0.2888780247,1.34117095,1.963091,-0.07139483,-3.766551
2023-12-22 07:31:18.596000000,-0.0732253,-0.1022212,-0.003614271,0.3524828,-0.5479038,-0.22126,0.08009525,0.05202867,0.03140865,0.8694253195000001,0.3409066947,1.3725796,1.964008,-0.07093997,-3.765959
2023-12-22 07:31:18.608999936,-0.07214792,-0.1040707,-0.00321484,0.3100783,-0.4720796,-0.1817353,0.07269284,0.04801936,0.03258881,0.9421181595,0.3889260547,1.40516841,1.96455,-0.07036891,-3.765288
2023-12-22 07:31:18.622999808,-0.07120161,-0.1050589,-0.002316022,0.264243,-0.3805656,-0.1253706,0.06242785,0.04099773,0.03359193,1.0045460095,0.4299237847,1.43876034,1.964962,-0.07021649,-3.764877
2023-12-22 07:31:18.637000192,-0.07172986,-0.1054406,-0.001362845,0.1884588,-0.2968309,-0.04595607,0.05106299,0.0311297,0.03479983,1.0556089995,0.4610534847,1.47356017,1.965291,-0.07020503,-3.764391
2023-12-22 07:31:18.651000064,-0.0735826,-0.1057229,7.350743e-05,0.08157153,-0.2301729,0.04364054,0.04008109,0.02119055,0.03655575,1.0956900895,0.4822440347,1.51011592,1.965544,-0.07012457,-3.763747
2023-12-22 07:31:18.664999936,-0.07524361,-0.1056073,0.001013247,-0.00789621,-0.1655876,0.1021344,0.02991371,0.0126772,0.04058858,1.1256037995,0.4949212347,1.5507045000000002,1.965715,-0.07002147,-3.762907
2023-12-22 07:31:18.678999808,-0.07587183,-0.1051525,0.001590943,-0.0452049,-0.1061153,0.1193654,0.0222772,0.007101865,0.04669162,1.1478809995,0.5020230997,1.5973961200000002,1.965881,-0.0700784,-3.762053
2023-12-22 07:31:18.693000192,-0.07661773,-0.1046883,0.001448944,-0.05934948,-0.05676141,0.1050611,0.01572965,0.00251271,0.05348146,1.1636106494999998,0.5045358097,1.6508775800000002,1.965943,-0.07015818,-3.761101
2023-12-22 07:31:18.707000064,-0.07768329,-0.1040788,0.001200464,-0.08768331,-0.008781826,0.08482459,0.009966521,-0.001832148,0.05973294,1.1735771704999998,0.5027036617,1.71061052,1.965901,-0.07036642,-3.760243
2023-12-22 07:31:18.720000000,-0.07948748,-0.1035016,0.001159232,-0.128926,0.02009089,0.0773687,0.004213689,-0.005760068,0.06315748,1.1777908594999995,0.4969435937,1.7737680000000002,1.96579,-0.0705594,-3.759362
2023-12-22 07:31:18.734999808,-0.08083872,-0.1030799,0.001109758,-0.1515453,0.03612684,0.0813795,-0.0008892901,-0.01034022,0.06598774,1.1769015693999998,0.4866033737,1.83975574,1.965587,-0.07087237,-3.758374
2023-12-22 07:31:18.748000000,-0.0819938,-0.1026443,0.001385219,-0.1568532,0.04262307,0.08354349,-0.005176589,-0.01580461,0.06851011,1.1717249803999998,0.4707987637,1.9082658500000005,1.965428,-0.0712911,-3.757414
2023-12-22 07:31:18.763000064,-0.08333042,-0.102109,0.001678372,-0.1598972,0.0474317,0.09073702,-0.008258572,-0.02119568,0.07078566,1.1634664084,0.4496030837,1.9790515100000003,1.965268,-0.07175217,-3.756362
2023-12-22 07:31:18.776999936,-0.08468611,-0.1017615,0.002140589,-0.1633448,0.04332195,0.1009837,-0.01103336,-0.02652449,0.07215803,1.1524330483999998,0.4230785937,2.0512095400000003,1.965054,-0.07220642,-3.755432
2023-12-22 07:31:18.789999872,-0.08615278,-0.1015964,0.002820082,-0.1632583,0.03396376,0.1186733,-0.01337015,-0.02874793,0.07231473,1.1390628983999995,0.3943306637,2.1235242700000003,1.964786,-0.07244246,-3.754385
2023-12-22 07:31:18.804000000,-0.0865954,-0.101474,0.003578311,-0.1378185,0.02144689,0.119301,-0.01524143,-0.02872466,0.07232853,1.1238214683999996,0.3656060037,2.1958528000000004,1.964617,-0.07275051,-3.753407
2023-12-22 07:31:18.818000128,-0.0869139,-0.1016865,0.004264751,-0.1032341,0.002424374,0.1160264,-0.01630306,-0.02584278,0.0721595,1.1075184083999996,0.3397632237,2.2680123000000005,1.964383,-0.0728342,-3.752395
2023-12-22 07:31:18.832999936,-0.08669171,-0.102401,0.00504069,-0.05870342,-0.03132028,0.1068372,-0.01719725,-0.02169679,0.07189034,1.0903211583999997,0.3180664337,2.3399026400000005,1.964126,-0.07296124,-3.751354
2023-12-22 07:31:18.845999872,-0.08660027,-0.1033969,0.005876707,-0.0234822,-0.074471,0.09657482,-0.01767436,-0.01663346,0.07180126,1.0726467983999997,0.3014329737,2.4117039000000005,1.963919,-0.07289026,-3.7503
2023-12-22 07:31:18.860000000,-0.08600023,-0.1048107,0.006607169,0.008561518,-0.116262,0.07674676,-0.01748135,-0.01133726,0.07186344,1.0551654483999997,0.2900957137,2.4835673400000005,1.963717,-0.0729041,-3.749242
2023-12-22 07:31:18.874000128,-0.08568299,-0.1061053,0.0065921,0.02877413,-0.1438589,0.03703143,-0.01702638,-0.006290659,0.07120443,1.0381390683999998,0.2838050547,2.5547717700000003,1.96353,-0.07276952,-3.74822
2023-12-22 07:31:18.888000000,-0.08525678,-0.1074996,0.006052272,0.03507114,-0.1579817,-0.01132376,-0.01749995,-0.001319224,0.06915774,1.0206391184,0.2824858307,2.6239295100000004,1.963238,-0.07261062,-3.74729
2023-12-22 07:31:18.901999872,-0.08497328,-0.1089765,0.005735917,0.02649543,-0.1679884,-0.04707044,-0.01864566,0.004652527,0.06664234,1.0019934584,0.2871383577,2.6905718500000004,1.962931,-0.07239596,-3.746368
2023-12-22 07:31:18.916000000,-0.08478634,-0.1103038,0.00533676,0.01998374,-0.1720101,-0.06448486,-0.02036761,0.01037734,0.06479365,0.9816258484,0.2975156977,2.7553655000000004,1.962546,-0.07208455,-3.745405
2023-12-22 07:31:18.930000128,-0.08424378,-0.1114834,0.00533065,0.02310866,-0.1723955,-0.07240845,-0.02239826,0.01560559,0.06402968,0.9592275884,0.3131212877,2.8193951800000003,1.962212,-0.07176562,-3.74442
2023-12-22 07:31:18.944000000,-0.08373196,-0.1123502,0.005169269,0.03272742,-0.1581267,-0.075071,-0.0242752,0.01927765,0.06403742,0.9349523883999998,0.3323989377,2.8834326000000003,1.961842,-0.07147012,-3.743463
2023-12-22 07:31:18.956999936,-0.0837528,-0.1128391,0.004962858,0.02573697,-0.1307928,-0.06671826,-0.02631439,0.02092449,0.06376211,0.9086379983999998,0.3533234277,2.94719471,1.961371,-0.07120486,-3.742575
2023-12-22 07:31:18.971000064,-0.08348265,-0.1126969,0.004909348,0.02540055,-0.09515979,-0.0555667,-0.02900182,0.02072918,0.06288719,0.8796361783999999,0.3740526077,3.0100819000000003,1.960963,-0.07092079,-3.741755
2023-12-22 07:31:18.984999936,-0.08288202,-0.1126765,0.004874615,0.03722542,-0.05926494,-0.0460451,-0.03089175,0.02183515,0.06187312,0.8487444283999999,0.3958877577,3.0719550200000003,1.960543,-0.07048993,-3.741003
2023-12-22 07:31:18.999000064,-0.08225349,-0.1128826,0.004983559,0.05221626,-0.04050869,-0.03694921,-0.0306811,0.02539339,0.06083341,0.8180633283999998,0.4212811477000001,3.13278843,1.96024,-0.06993999,-3.740185
2023-12-22 07:31:19.012999936,-0.0810238,-0.1132792,0.005309772,0.08192152,-0.04118466,-0.03162762,-0.02829746,0.02794355,0.05901007,0.7897658683999998,0.4492246977,3.1917985,1.960006,-0.06957333,-3.739447
2023-12-22 07:31:19.027000064,-0.08071167,-0.1137806,0.005550768,0.08992358,-0.05063698,-0.02596666,-0.02533377,0.0283516,0.05575906,0.7644320983999998,0.4775762977,3.24755756,1.959776,-0.06918909,-3.738794
2023-12-22 07:31:19.040999936,-0.08057524,-0.1143128,0.005890613,0.07302588,-0.05806088,-0.01282954,-0.02249468,0.02632333,0.05066683,0.7419374183999998,0.5038996277000001,3.29822439,1.959535,-0.06901275,-3.738324
2023-12-22 07:31:19.055000064,-0.08117907,-0.1146758,0.006239042,0.03896848,-0.06640798,0.008692309,-0.01989093,0.0219397,0.0447605,0.7220464883999999,0.5258393277000001,3.3429848900000003,1.959382,-0.0688431,-3.737841
2023-12-22 07:31:19.069999872,-0.08147322,-0.1154773,0.006662756,0.009473843,-0.07950491,0.02206463,-0.01768545,0.01736814,0.03969017,0.7043610383999999,0.5432074677000001,3.3826750600000004,1.959207,-0.06873557,-3.737293
2023-12-22 07:31:19.084000000,-0.08171783,-0.1159976,0.006647835,-0.009181846,-0.0839198,0.01735565,-0.01504586,0.01330193,0.03525168,0.6893151783999999,0.5565093977000001,3.4179267400000004,1.959113,-0.06860717,-3.736757
2023-12-22 07:31:19.096999936,-0.08178625,-0.1166781,0.006407503,-0.01849432,-0.08673437,0.002886121,-0.01314237,0.01078516,0.03185079,0.6761728083999999,0.5672945577,3.4497775300000004,1.958937,-0.06851591,-3.736309
2023-12-22 07:31:19.111000064,-0.08193795,-0.1172523,0.00614506,-0.01942702,-0.08046718,-0.01269972,-0.01180534,0.008557165,0.02913675,0.6643674683999999,0.5758517227000001,3.4789142800000006,1.95873,-0.06844877,-3.735994
2023-12-22 07:31:19.124999936,-0.08192066,-0.1174439,0.005997725,-0.01780239,-0.06968782,-0.02249813,-0.01122661,0.005109461,0.02648207,0.6531408583999999,0.5809611837,3.5053963500000007,1.958618,-0.06860109,-3.735796
2023-12-22 07:31:19.139000064,-0.08228618,-0.1175869,0.0058959,-0.02092341,-0.0559136,-0.01769163,-0.01087043,-0.0001092617,0.02391763,0.6422704283999999,0.580851922,3.529313980000001,1.958459,-0.06876565,-3.735481
2023-12-22 07:31:19.153000192,-0.08227961,-0.1175122,0.00606568,-0.01993532,-0.03689298,-0.00873394,-0.01048086,-0.006487978,0.02238447,0.6317895683999999,0.574363944,3.551698450000001,1.958342,-0.06913634,-3.735144
2023-12-22 07:31:19.167000064,-0.08253961,-0.117278,0.006298469,-0.02128946,-0.01447602,0.007713849,-0.01021873,-0.01390066,0.02159296,0.6215708383999999,0.560463284,3.573291410000001,1.958195,-0.06957538,-3.73487
2023-12-22 07:31:19.180999936,-0.08351046,-0.1169577,0.006800994,-0.0366804,0.001781052,0.03110229,-0.01050557,-0.02046772,0.02087779,0.6110652684,0.539995564,3.594169200000001,1.958056,-0.06998208,-3.734575
2023-12-22 07:31:19.194999808,-0.08464497,-0.1165641,0.00705814,-0.06382639,0.01029752,0.05873551,-0.01085261,-0.0281714,0.02001804,0.6002126583999999,0.5118241640000001,3.614187240000001,1.95789,-0.07069867,-3.734365
2023-12-22 07:31:19.209000192,-0.08681867,-0.1163235,0.007577529,-0.1178694,0.01212762,0.09377267,-0.01048454,-0.03762623,0.01781734,0.5897281184,0.4741979340000001,3.632004580000001,1.957815,-0.07152953,-3.734228
2023-12-22 07:31:19.223000064,-0.0897534,-0.1160156,0.008108558,-0.1894183,0.01158811,0.1317051,-0.009113167,-0.04791731,0.01442663,0.5806149514,0.4262806240000001,3.646431210000001,1.957804,-0.07250172,-3.734146
2023-12-22 07:31:19.236999936,-0.09330451,-0.1159206,0.008395491,-0.2736381,0.002305304,0.1623111,-0.008232364,-0.05898272,0.009332684,0.5723825873999999,0.3672979040000001,3.655763894000001,1.957725,-0.07364227,-3.734261
2023-12-22 07:31:19.250999808,-0.09777313,-0.1158248,0.008572357,-0.3697799,-0.003909464,0.1932508,-0.007145299,-0.06811982,0.004257172,0.5652372883999999,0.2991780840000001,3.660021066000001,1.957655,-0.07482573,-3.73437
2023-12-22 07:31:19.265000192,-0.1024069,-0.1157337,0.008649422,-0.4572505,-0.005423918,0.2110951,-0.005612989,-0.07645149,-0.0007442153,0.5596242993999999,0.2227265940000001,3.659276850700001,1.957632,-0.07605606,-3.734541
2023-12-22 07:31:19.279000064,-0.1071947,-0.1152726,0.0080982,-0.5295392,0.004577385,0.210752,-0.00400239,-0.08084459,-0.005339554,0.5556219093999999,0.1418820040000001,3.653937296700001,1.957635,-0.07718132,-3.73469
2023-12-22 07:31:19.292999936,-0.1115724,-0.1146734,0.007926572,-0.5676916,0.02506072,0.2063752,-0.002524099,-0.08257186,-0.008147188,0.5530978104,0.0593101440000001,3.645790108700001,1.957618,-0.0782814,-3.734786
2023-12-22 07:31:19.306999808,-0.1152581,-0.1141624,0.008470196,-0.5549034,0.02839437,0.223329,-0.001531527,-0.08252414,-0.00801095,0.5515662833999999,-0.0232139959999998,3.637779158700001,1.957611,-0.07940171,-3.734878
2023-12-22 07:31:19.321000192,-0.1185068,-0.1136993,0.009479791,-0.5137551,0.02198311,0.2458848,-0.0008010218,-0.08056618,-0.005404778,0.5507652616,-0.1037801759999998,3.632374380700001,1.957641,-0.08039411,-3.734887
2023-12-22 07:31:19.335000064,-0.1208197,-0.1129596,0.01014313,-0.4453865,0.02272335,0.252847,-4.326567e-05,-0.07714371,-0.001246693,0.5507219959299999,-0.1809238859999998,3.6311276877000007,1.957626,-0.0813152,-3.73483
2023-12-22 07:31:19.348999936,-0.1229323,-0.1118006,0.01051556,-0.3786705,0.04896426,0.2387585,0.000847114,-0.0751432,0.001889746,0.55156910993,-0.2560670859999998,3.633017433700001,1.957653,-0.08236709,-3.734881
2023-12-22 07:31:19.362999808,-0.1261102,-0.1108427,0.01126422,-0.3634823,0.06436734,0.2462249,0.0004533157,-0.07483516,0.001828614,0.5520224256299999,-0.3309022459999998,3.6348460477,1.957568,-0.08345961,-3.735066
2023-12-22 07:31:19.377000192,-0.1301608,-0.1102094,0.01251039,-0.3928375,0.05679895,0.2803811,-0.0004917996,-0.07814602,-0.002449499,0.5515306260299999,-0.4090482659999998,3.632396548700001,1.957494,-0.08468636,-3.735322
2023-12-22 07:31:19.391000064,-0.135074,-0.1094052,0.01353239,-0.448508,0.03897778,0.3203117,-0.0008130092,-0.08442849,-0.01003608,0.5507176168299999,-0.4934767559999998,3.6223604687000006,1.957501,-0.086081,-3.735755
2023-12-22 07:31:19.404999936,-0.1409614,-0.1085144,0.01446772,-0.5384294,0.02641886,0.3584892,-0.0001555965,-0.09209837,-0.01856458,0.5505620203299999,-0.5855751259999998,3.603795888700001,1.957561,-0.08752556,-3.736255
2023-12-22 07:31:19.418999808,-0.1467226,-0.1077972,0.01509291,-0.6187997,0.02628511,0.3759497,0.0007267846,-0.100777,-0.02636317,0.5512888049299999,-0.6863521259999998,3.5774327187000003,1.957549,-0.08923874,-3.73686
2023-12-22 07:31:19.433000192,-0.1530116,-0.1069123,0.01558134,-0.6900885,0.03048609,0.3884397,0.00189265,-0.1107464,-0.03332395,0.5531814549299999,-0.7970985259999999,3.5441087687,1.957563,-0.09101767,-3.737504
2023-12-22 07:31:19.447000064,-0.1593055,-0.106139,0.01592458,-0.7372904,0.03554426,0.3842979,0.002291186,-0.1171872,-0.0412954,0.5554726409299999,-0.914285726,3.5028133687,1.957571,-0.09248788,-3.73836
2023-12-22 07:31:19.461999872,-0.1650404,-0.1054215,0.01563981,-0.7742089,0.03948602,0.3612186,0.002892423,-0.1127427,-0.05005713,0.55836506393,-1.027028426,3.4527562387,1.957633,-0.09357237,-3.73927
2023-12-22 07:31:19.476000000,-0.1688165,-0.1046107,0.01463399,-0.7293988,0.06505499,0.2866855,0.005040035,-0.09916192,-0.05440861,0.56340509893,-1.126190346,3.3983476287000003,1.957856,-0.09432093,-3.739918
2023-12-22 07:31:19.489000192,-0.1700208,-0.1042711,0.01369162,-0.5912457,0.08396979,0.1917436,0.008281358,-0.07999406,-0.05209341,0.57168645693,-1.206184406,3.3462542187000004,1.958033,-0.09477813,-3.740481
2023-12-22 07:31:19.503000064,-0.1696626,-0.1039262,0.01295062,-0.3974806,0.08879536,0.09235487,0.01199971,-0.056829,-0.04667713,0.58368616693,-1.263013406,3.2995770887000004,1.958341,-0.09501562,-3.740984
2023-12-22 07:31:19.516999936,-0.1688256,-0.1039548,0.01197274,-0.2279401,0.0889237,0.008808065,0.01514561,-0.03670241,-0.04261928,0.59883177693,-1.299715816,3.2569578087000006,1.958581,-0.09524597,-3.741609
2023-12-22 07:31:19.530999808,-0.168504,-0.1038181,0.01105289,-0.1227427,0.08322827,-0.04498499,0.01758041,-0.02212954,-0.04331159,0.61641218693,-1.321845356,3.213646218700001,1.95886,-0.0954797,-3.742461
2023-12-22 07:31:19.545000192,-0.1692029,-0.1036442,0.01028712,-0.09978101,0.07776097,-0.057578,0.01876698,-0.0145562,-0.0495809,0.63517916693,-1.3364015559999998,3.1640653187000005,1.959099,-0.09568136,-3.74349
2023-12-22 07:31:19.559000064,-0.1706589,-0.1033816,0.009679142,-0.1252359,0.07398157,-0.04173554,0.01898564,-0.01221152,-0.05861057,0.65416480693,-1.3486130759999997,3.1054547487000006,1.959322,-0.09594575,-3.74457
2023-12-22 07:31:19.573999872,-0.1723216,-0.1033681,0.009777896,-0.1622088,0.051626,-0.008551376,0.01863898,-0.01356557,-0.06761242,0.67280378693,-1.3621786459999996,3.0378423287000005,1.959607,-0.09627501,-3.745703
2023-12-22 07:31:19.586999808,-0.1737809,-0.1035334,0.009791274,-0.178868,0.026826,0.0172031,0.01872899,-0.01616174,-0.07350284,0.6915327769299999,-1.3783403859999996,2.9643394887000003,1.959872,-0.09658815,-3.74673
2023-12-22 07:31:19.601000192,-0.1745567,-0.103645,0.01009334,-0.166943,-0.005268939,0.03705355,0.01989045,-0.01891668,-0.07491952,0.7114232269299999,-1.3972570659999997,2.8894199687000004,1.960234,-0.0968969,-3.747694
2023-12-22 07:31:19.615000064,-0.1749539,-0.1038529,0.01051845,-0.131052,-0.02137362,0.04365842,0.02138653,-0.02209167,-0.07290761,0.73280975693,-1.4193487359999997,2.8165123587000003,1.960539,-0.09727611,-3.748619
2023-12-22 07:31:19.628999936,-0.175377,-0.1039603,0.01118412,-0.09603482,-0.03845681,0.05619856,0.02232481,-0.02716623,-0.06994207,0.7551345669299999,-1.4465149659999996,2.7465702887,1.960838,-0.09783367,-3.749498
2023-12-22 07:31:19.642999808,-0.1766886,-0.1038315,0.01220728,-0.09686648,-0.05182456,0.08934542,0.02283029,-0.03503551,-0.06862802,0.77796485693,-1.4815504759999996,2.6779422687000003,1.961174,-0.0985167,-3.750253
2023-12-22 07:31:19.657000192,-0.1790744,-0.1040027,0.01329233,-0.1412278,-0.06902555,0.1309553,0.02357252,-0.04416884,-0.0699731,0.8015373769299999,-1.5257193159999995,2.6079691687000004,1.961503,-0.0992692,-3.750995
2023-12-22 07:31:19.671000064,-0.1814425,-0.1041278,0.01387097,-0.200865,-0.08299379,0.1537663,0.02437032,-0.05364709,-0.07301164,0.8259076969299999,-1.5793664059999994,2.534957528700001,1.961869,-0.1001418,-3.752149
2023-12-22 07:31:19.684999936,-0.1842936,-0.1043661,0.01451182,-0.2599984,-0.08828063,0.1661945,0.02530331,-0.0577329,-0.07678111,0.8512110069299998,-1.6370993059999994,2.4581764187000004,1.96224,-0.1007771,-3.753278
2023-12-22 07:31:19.698999808,-0.1864159,-0.1048638,0.01465493,-0.2850836,-0.08501326,0.1488218,0.02579735,-0.05685052,-0.07767601,0.8770083569299999,-1.6939498259999994,2.380500408700001,1.962576,-0.1013641,-3.75408
2023-12-22 07:31:19.712999936,-0.1873195,-0.1049535,0.01484658,-0.2513891,-0.0777529,0.1180458,0.02724625,-0.05208199,-0.07457097,0.90425460693,-1.7460318159999997,2.3059294387000007,1.963079,-0.1018324,-3.754707
2023-12-22 07:31:19.727000064,-0.1874696,-0.1055093,0.01473955,-0.1835247,-0.06841721,0.0724887,0.02909105,-0.04380499,-0.06847148,0.93334565693,-1.7898368059999994,2.2374579587000007,1.963488,-0.1021455,-3.755194
2023-12-22 07:31:19.740999936,-0.1870227,-0.105895,0.01487856,-0.1036069,-0.05658082,0.0261073,0.03092636,-0.03554985,-0.06168635,0.96427201693,-1.825386656,2.1757716087000007,1.964046,-0.1024083,-3.755743
2023-12-22 07:31:19.755000064,-0.1866548,-0.1063155,0.01493649,-0.04124966,-0.06048677,-0.0002449472,0.0320884,-0.02736648,-0.05741812,0.99636041693,-1.852753136,2.118353488700001,1.964527,-0.1025903,-3.756475
2023-12-22 07:31:19.768999936,-0.1871971,-0.1066879,0.01505134,-0.03955862,-0.05781689,-0.003703138,0.03232448,-0.01946355,-0.05835986,1.02868489693,-1.872216686,2.059993628700001,1.964996,-0.1026675,-3.757347
2023-12-22 07:31:19.783000064,-0.1876796,-0.1070657,0.0149718,-0.04960087,-0.05245355,-0.006697989,0.03128728,-0.01162807,-0.06147416,1.05997217693,-1.883844756,1.998519468700001,1.965431,-0.1026527,-3.758121
2023-12-22 07:31:19.796999936,-0.1873965,-0.1073696,0.01493743,-0.03316819,-0.05212197,-0.01434915,0.03048632,-0.00366844,-0.06267516,1.09045849693,-1.887513196,1.935844308700001,1.965913,-0.102484,-3.758852
2023-12-22 07:31:19.811000064,-0.1864091,-0.1080184,0.01522907,0.01472374,-0.05865905,-0.02896283,0.03027266,0.005328727,-0.06100844,1.12073115693,-1.882184469,1.874835868700001,1.966362,-0.1021378,-3.759504
2023-12-22 07:31:19.824000000,-0.1846583,-0.1085966,0.01528654,0.08582798,-0.06277589,-0.05397049,0.0306933,0.01438432,-0.05719151,1.15142445693,-1.867800149,1.817644358700001,1.966832,-0.1017622,-3.760103
2023-12-22 07:31:19.839000064,-0.1827689,-0.1092475,0.0153601,0.1480398,-0.06108458,-0.08172602,0.03105959,0.02122233,-0.05281253,1.18248404693,-1.8465778189999995,1.764831828700001,1.967273,-0.1014018,-3.760669
2023-12-22 07:31:19.852999936,-0.1809613,-0.1097082,0.01514323,0.1863349,-0.0560902,-0.104683,0.03089844,0.02536564,-0.04947303,1.21338248693,-1.8212121789999995,1.7153587987000012,1.967713,-0.1010858,-3.761246
2023-12-22 07:31:19.865999872,-0.1795688,-0.110266,0.01517517,0.1929504,-0.05558001,-0.1104325,0.03008876,0.02655155,-0.04734504,1.24347124693,-1.7946606289999991,1.6680137587000012,1.968102,-0.1008065,-3.761837
2023-12-22 07:31:19.880000000,-0.1785769,-0.1108235,0.01528748,0.1790964,-0.05482135,-0.1018145,0.02853444,0.02466553,-0.04650141,1.27200568693,-1.7699950989999993,1.6215123487000012,1.968423,-0.1005746,-3.76244
2023-12-22 07:31:19.895000064,-0.1779512,-0.1113189,0.01529989,0.1470258,-0.05585963,-0.08732352,0.02613553,0.02058528,-0.04626285,1.29814121693,-1.7494098189999994,1.5752494987000012,1.968714,-0.1004639,-3.763046
2023-12-22 07:31:19.908999936,-0.177877,-0.1114962,0.01534399,0.1013744,-0.05449558,-0.06604208,0.02342504,0.01543508,-0.0459651,1.32156625693,-1.733974738999999,1.529284398700001,1.969025,-0.1004171,-3.763638
2023-12-22 07:31:19.921999872,-0.1781516,-0.1116189,0.01520363,0.05674461,-0.04046533,-0.04483378,0.02072229,0.009743176,-0.045298,1.34228854693,-1.7242315629999994,1.483986398700001,1.969258,-0.1003957,-3.764171
2023-12-22 07:31:19.936000000,-0.1783811,-0.1114633,0.01503455,0.01803687,-0.01869539,-0.0292889,0.01852372,0.005796897,-0.04333925,1.3608122669299998,-1.7184346659999994,1.440647148700001,1.969497,-0.1003691,-3.764678
2023-12-22 07:31:19.950000128,-0.1784688,-0.1115485,0.0147915,-0.0009933595,-0.001068457,-0.02047033,0.01683811,0.004406929,-0.03964401,1.3776503769299997,-1.7140277369999994,1.401003138700001,1.969682,-0.1002709,-3.765046
2023-12-22 07:31:19.964000000,-0.1779775,-0.1113994,0.01474166,0.009486097,0.009632004,-0.02586242,0.0155123,0.004970676,-0.03437769,1.3931626769299996,-1.7090570609999995,1.3666254487000011,1.969937,-0.1001733,-3.76533
2023-12-22 07:31:19.977999872,-0.1773498,-0.1114904,0.01470705,0.03766979,0.01029139,-0.03095985,0.01494424,0.006354162,-0.02765336,1.4081069169299996,-1.7027028989999995,1.3389720887000012,1.970163,-0.1000874,-3.765516
2023-12-22 07:31:19.992000000,-0.1767491,-0.1114625,0.01464361,0.05460234,0.005927416,-0.02847086,0.01478218,0.007625071,-0.02202545,1.4228890969299997,-1.6950778279999994,1.3169466387000013,1.97039,-0.1000668,-3.765744
2023-12-22 07:31:20.006000128,-0.1765064,-0.111421,0.01459289,0.05366603,0.004419284,-0.02321584,0.01424125,0.007687412,-0.01861219,1.4371303469299996,-1.6873904159999995,1.2983344487000013,1.970567,-0.09998949,-3.765977
2023-12-22 07:31:20.019000064,-0.1768591,-0.1113049,0.01484849,0.02980408,0.00615577,-0.008211869,0.01351265,0.007374277,-0.01728454,1.4506429969299997,-1.6800161389999997,1.2810499087000011,1.970765,-0.09985245,-3.766183
2023-12-22 07:31:20.032999936,-0.1768169,-0.1113573,0.01495186,0.01243923,-0.002856498,0.008132652,0.01305589,0.006591864,-0.01657449,1.4636988869299996,-1.6734242749999997,1.2644754187000014,1.970962,-0.09980368,-3.766345
2023-12-22 07:31:20.048000000,-0.1769081,-0.1113509,0.01503747,0.005374262,-0.004107231,0.01038826,0.01326834,0.006244932,-0.01390249,1.4769672269299996,-1.6671793429999997,1.2505729287000014,1.971198,-0.09973743,-3.766345
2023-12-22 07:31:20.061000192,-0.1762863,-0.1115498,0.01503471,0.02605063,-0.005274581,-0.003723536,0.01362957,0.005957867,-0.00948496,1.4905967969299996,-1.6612214759999997,1.2410879687000014,1.971367,-0.09969968,-3.766477
2023-12-22 07:31:20.075000064,-0.1756382,-0.111603,0.01516454,0.04866542,-0.006274492,-0.01612809,0.01448642,0.006217651,-0.004318085,1.5050832169299997,-1.6550038249999994,1.2367698837000014,1.971609,-0.09959591,-3.766384
2023-12-22 07:31:20.089999872,-0.1750674,-0.1118716,0.01504196,0.05934048,-0.01188963,-0.02487858,0.0149185,0.005739324,-0.0006472226,1.5200017169299995,-1.649264500999999,1.2361226611000014,1.971847,-0.09953497,-3.766267
2023-12-22 07:31:20.102999808,-0.1749852,-0.1121757,0.01522921,0.05102461,-0.02341862,-0.02508025,0.0145408,0.003823866,0.0004011877,1.5345425169299998,-1.6454406349999993,1.2365238488000014,1.972051,-0.0995408,-3.766187
2023-12-22 07:31:20.117000192,-0.1754129,-0.1125305,0.0152454,0.01791697,-0.03176708,-0.01457766,0.01369802,0.001685593,-0.001046065,1.54824053693,-1.6437550419999991,1.2354777838000015,1.972235,-0.09960226,-3.766186
2023-12-22 07:31:20.131000064,-0.1759633,-0.1126503,0.01522337,-0.01988597,-0.03492616,-0.005346281,0.012304,0.0005616987,-0.003199919,1.56054453693,-1.6431933432999994,1.2322778648000017,1.972385,-0.09964178,-3.766251
2023-12-22 07:31:20.144000000,-0.1761631,-0.1129552,0.01538879,-0.02955814,-0.03884289,-0.001656842,0.0110936,0.001703893,-0.003923724,1.57163813693,-1.6414894502999997,1.2283541408000014,1.972537,-0.09956358,-3.766275
2023-12-22 07:31:20.158999808,-0.1758198,-0.1133058,0.01569242,-0.0104032,-0.04246356,-0.001843638,0.01046145,0.004272319,-0.002253936,1.58209958693,-1.6372171312999997,1.2261002048000014,1.972695,-0.09939956,-3.766204
2023-12-22 07:31:20.173000192,-0.1751125,-0.1135169,0.0158744,0.0247175,-0.04345337,-0.01018861,0.009916455,0.007347113,0.0005848734,1.5920160419299998,-1.6298700182999994,1.2266850782000014,1.97282,-0.09921888,-3.766046
2023-12-22 07:31:20.186000128,-0.1744092,-0.1139738,0.01625237,0.05425286,-0.05177155,-0.01448235,0.009573893,0.0101155,0.00298286,1.6015899349299998,-1.6197545182999995,1.2296679382000013,1.972949,-0.0989973,-3.76585
2023-12-22 07:31:20.200000000,-0.1739244,-0.1142981,0.01638818,0.06919152,-0.05212471,-0.0204367,0.009236774,0.01210375,0.00417691,1.6108267089299997,-1.6076507682999994,1.2338448482000013,1.973088,-0.09878703,-3.76573
2023-12-22 07:31:20.213999872,-0.1735259,-0.1146825,0.01684438,0.06902443,-0.05936497,-0.01726025,0.008676065,0.01321241,0.003575031,1.6195027739299996,-1.5944383582999997,1.2374198792000013,1.973223,-0.09856962,-3.765679
2023-12-22 07:31:20.228000000,-0.1731856,-0.1152209,0.01692824,0.0594786,-0.0700236,-0.0172504,0.007771968,0.01357992,0.001895958,1.6272747419299995,-1.5808584382999995,1.2393158372000013,1.973326,-0.09838736,-3.765647
2023-12-22 07:31:20.242000128,-0.172948,-0.1160257,0.0172444,0.0494411,-0.08415421,-0.01889732,0.007489585,0.01362102,0.0005868177,1.6347643269299996,-1.5672374182999995,1.2399026549000012,1.973444,-0.09820644,-3.76555
2023-12-22 07:31:20.256000000,-0.1725082,-0.1168758,0.01753933,0.05036244,-0.09774182,-0.02946955,0.007941268,0.01401224,0.0002163856,1.6427055949299996,-1.5532251782999995,1.240119040500001,1.97358,-0.09801068,-3.765435
2023-12-22 07:31:20.269999872,-0.1716713,-0.1179701,0.01768851,0.06493891,-0.114883,-0.05160739,0.008796462,0.01567055,0.001248131,1.6515020569299996,-1.5375546282999994,1.2413671715000012,1.973778,-0.09775685,-3.765295
2023-12-22 07:31:20.284000000,-0.1703361,-0.1192171,0.01776677,0.09414136,-0.1257926,-0.0787631,0.01011675,0.01817167,0.003993703,1.6616188069299995,-1.5193829582999994,1.245360874500001,1.974022,-0.09734468,-3.764936
2023-12-22 07:31:20.298000128,-0.1687921,-0.1204072,0.01780609,0.1251397,-0.1352161,-0.1065387,0.01013139,0.02015594,0.007308215,1.6717501969299997,-1.4992270182999994,1.252669089500001,1.974159,-0.09705544,-3.764658
2023-12-22 07:31:20.312000000,-0.1675466,-0.1214316,0.01799577,0.1393047,-0.1335929,-0.1154952,0.009742368,0.02101858,0.0102512,1.6814925649299994,-1.4782084382999994,1.262920289500001,1.974262,-0.09679306,-3.764358
2023-12-22 07:31:20.325999872,-0.1667991,-0.1222654,0.01798294,0.1277374,-0.1263924,-0.1153121,0.007775798,0.02056191,0.01233473,1.6892683629299994,-1.4576465282999993,1.275255019500001,1.974301,-0.09655794,-3.764064
2023-12-22 07:31:20.340000000,-0.1663665,-0.1230194,0.01817774,0.1042684,-0.1175093,-0.09589555,0.005358842,0.01844777,0.01294282,1.6946272049299993,-1.4391987582999992,1.2881978395000009,1.974337,-0.09641273,-3.763854
2023-12-22 07:31:20.354000128,-0.1663062,-0.1234222,0.01827395,0.07291882,-0.100486,-0.06718739,0.002188394,0.01515689,0.01283484,1.6968155989299991,-1.4240418682999991,1.301032679500001,1.974461,-0.0962053,-3.76364
2023-12-22 07:31:20.368000000,-0.1664591,-0.1237352,0.01863211,0.04143029,-0.08789334,-0.03951526,-0.001286612,0.01204502,0.01269539,1.6955289869299994,-1.4119968482999992,1.3137280695000009,1.974379,-0.09610078,-3.763385
2023-12-22 07:31:20.381999872,-0.1665044,-0.1240526,0.01894057,0.02044359,-0.07700286,-0.01529596,-0.004194647,0.009712761,0.01377768,1.6913343399299994,-1.402284087299999,1.3275057495000009,1.974253,-0.09600446,-3.763056
2023-12-22 07:31:20.396000000,-0.1662003,-0.1242142,0.0191737,0.01954102,-0.06614403,-0.005680077,-0.006646393,0.008034868,0.01676439,1.6846879469299991,-1.3942492192999991,1.344270139500001,1.974111,-0.09591557,-3.762661
2023-12-22 07:31:20.408999936,-0.1658917,-0.1246366,0.01941706,0.03153504,-0.06126347,-0.004914019,-0.008401505,0.007323316,0.02121524,1.6762864419299994,-1.3869259032999992,1.365485379500001,1.973941,-0.09582006,-3.762009
2023-12-22 07:31:20.423000064,-0.1653569,-0.1248473,0.01963208,0.04599464,-0.05638339,-0.01082295,-0.009379483,0.006676413,0.02649632,1.6669069589299994,-1.380249490299999,1.391981699500001,1.973876,-0.09574491,-3.761438
2023-12-22 07:31:20.436999936,-0.1648981,-0.1252226,0.01975549,0.0567635,-0.05158675,-0.01921316,-0.009667272,0.005345995,0.03143499,1.6572396869299997,-1.374903495299999,1.4234166895000009,1.973744,-0.09570947,-3.760812
2023-12-22 07:31:20.451000064,-0.1646345,-0.1255907,0.01977987,0.05034496,-0.05019917,-0.02412961,-0.009767197,0.003065263,0.03548158,1.6474724899299995,-1.371838232299999,1.4588982695000008,1.973582,-0.09577465,-3.760173
2023-12-22 07:31:20.464999936,-0.1646308,-0.1259826,0.01970517,0.03074645,-0.04877349,-0.02424088,-0.01003482,0.000357845,0.03806205,1.6374376699299995,-1.371480387299999,1.4969603195000007,1.973407,-0.09584288,-3.759563
2023-12-22 07:31:20.479000064,-0.1650856,-0.1261136,0.0196542,-0.00209313,-0.04308973,-0.02106612,-0.01084244,-0.00212301,0.03906462,1.6265952299299995,-1.373603397299999,1.5360249395000007,1.973301,-0.09590273,-3.759007
2023-12-22 07:31:20.492999936,-0.1655865,-0.1266655,0.01974817,-0.03025645,-0.04749954,-0.008848463,-0.0122624,-0.004075087,0.03928892,1.6143328299299995,-1.377678484299999,1.5753138595000007,1.973034,-0.09597602,-3.758412
2023-12-22 07:31:20.507000064,-0.1663205,-0.1271374,0.02017295,-0.05090441,-0.06024368,0.01118783,-0.0134976,-0.005496718,0.03934221,1.6008352299299995,-1.383175202299999,1.6146560695000007,1.97287,-0.09604524,-3.757798
2023-12-22 07:31:20.520999936,-0.1670663,-0.127571,0.02048045,-0.06998166,-0.07164446,0.02536289,-0.01408439,-0.00588053,0.03914069,1.5867508399299994,-1.389055732299999,1.6537967595000007,1.97272,-0.09613555,-3.757157
2023-12-22 07:31:20.535000064,-0.1676214,-0.1280136,0.02050165,-0.07991082,-0.0762561,0.02631145,-0.01423716,-0.005950511,0.03924067,1.5725136799299997,-1.395006243299999,1.6930374295000008,1.972558,-0.09621668,-3.756557
2023-12-22 07:31:20.548999936,-0.1681122,-0.128259,0.02038375,-0.08101493,-0.06293051,0.01349,-0.01408397,-0.005494442,0.0397062,1.5584297099299995,-1.400500685299999,1.7327436295000007,1.972423,-0.09626321,-3.755963
2023-12-22 07:31:20.563000064,-0.1683597,-0.1287268,0.02042404,-0.07380217,-0.05654264,0.005721402,-0.01416317,-0.004075564,0.04053834,1.5442665399299995,-1.4045762492999991,1.7732819695000006,1.972204,-0.09625957,-3.75534
2023-12-22 07:31:20.576000000,-0.1684947,-0.1291848,0.02049359,-0.05640563,-0.05513252,-0.002231632,-0.01486274,-0.002426855,0.04107507,1.5294037999299994,-1.407003104299999,1.8143570395000008,1.971946,-0.09625894,-3.754717
2023-12-22 07:31:20.589999872,-0.1687036,-0.1295293,0.02050572,-0.0418116,-0.05580948,-0.004718598,-0.01602014,-0.001199017,0.04064479,1.5133836599299997,-1.408202121299999,1.8550018295000008,1.97164,-0.0962574,-3.754099
2023-12-22 07:31:20.604000000,-0.1688047,-0.1299043,0.02080885,-0.03155999,-0.0539271,-0.00124487,-0.01705061,-0.0005530806,0.03929977,1.4963330499299994,-1.4087552018999991,1.8943015995000003,1.971406,-0.09623958,-3.753552
2023-12-22 07:31:20.618000128,-0.1691137,-0.1300061,0.02079337,-0.03227654,-0.04818193,0.0007189175,-0.01837975,0.000358501,0.03740477,1.4779532999299994,-1.4083967008999991,1.9317063695000003,1.971169,-0.09616449,-3.753048
2023-12-22 07:31:20.632000000,-0.169333,-0.1301398,0.02080303,-0.03121831,-0.03585458,0.007112507,-0.01920586,0.001237875,0.03505655,1.4587474399299991,-1.4071588258999992,1.9667629195000005,1.970858,-0.09612476,-3.752586
2023-12-22 07:31:20.645999872,-0.1693266,-0.1301045,0.02081567,-0.02289535,-0.02383072,0.004613069,-0.02004999,0.002523733,0.03276135,1.4386974499299994,-1.404635092899999,1.9995242695000004,1.970574,-0.09604684,-3.75218
2023-12-22 07:31:20.660000000,-0.1691408,-0.1301739,0.02066818,-0.007244653,-0.00884228,-0.01042181,-0.02025777,0.005934808,0.0308541,1.4184396799299994,-1.3987002848999992,2.0303783695000006,1.970287,-0.09588067,-3.751766
2023-12-22 07:31:20.674000128,-0.1683433,-0.1301962,0.02044415,0.02364445,-0.003560093,-0.02640176,-0.02004325,0.009538546,0.02912556,1.3983964299299994,-1.3891617388999993,2.059503929500001,1.970031,-0.09562974,-3.751379
2023-12-22 07:31:20.688000000,-0.1677698,-0.1304097,0.02052581,0.04213211,-0.005886341,-0.03535773,-0.01992004,0.01341547,0.02706058,1.3784763899299994,-1.3757462688999993,2.086564509500001,1.969798,-0.09534761,-3.751048
2023-12-22 07:31:20.701999872,-0.1671132,-0.1305563,0.02033613,0.05933075,-0.008835893,-0.04459658,-0.01913612,0.01675599,0.02498688,1.3593402699299997,-1.3589902788999992,2.111551389500001,1.969567,-0.09503189,-3.750652
2023-12-22 07:31:20.716000000,-0.1661209,-0.1307851,0.02014285,0.07763058,-0.008036236,-0.05979973,-0.01835128,0.0206582,0.0229762,1.3409889899299994,-1.3383320788999993,2.134527589500001,1.969323,-0.09467036,-3.750299
2023-12-22 07:31:20.729000192,-0.1648622,-0.130907,0.01972649,0.0985381,-0.000188539,-0.07556342,-0.01728034,0.02399688,0.02111197,1.3237086499299997,-1.3143351988999992,2.1556395595000013,1.969081,-0.09432458,-3.750006
2023-12-22 07:31:20.743000064,-0.1635121,-0.1310827,0.01953895,0.1214263,0.00415235,-0.09711881,-0.01675305,0.02657243,0.01900188,1.3069555999299995,-1.287762768899999,2.174641439500001,1.968907,-0.0938935,-3.749794
2023-12-22 07:31:20.756999936,-0.1619408,-0.1312406,0.01923031,0.1475258,0.005842233,-0.1113751,-0.01562695,0.02882335,0.01690088,1.2913286499299996,-1.2589394188999992,2.191542319500001,1.968763,-0.09340727,-3.749557
2023-12-22 07:31:20.770999808,-0.1600579,-0.1314932,0.01866656,0.1762153,0.01217095,-0.1288604,-0.01427614,0.03194843,0.01530658,1.2770525099299996,-1.2269909888999992,2.206848899500001,1.968549,-0.09291717,-3.749328
2023-12-22 07:31:20.785000192,-0.1578009,-0.1314808,0.0180529,0.2068092,0.0262665,-0.154481,-0.01290921,0.03535553,0.01428661,1.2641432999299995,-1.1916354588999991,2.221135509500001,1.968409,-0.09243444,-3.749111
2023-12-22 07:31:20.800000000,-0.1557496,-0.1316132,0.01770956,0.2315922,0.02540314,-0.1650597,-0.01186524,0.03782768,0.0131573,1.2522780599299996,-1.1538077788999994,2.234292809500001,1.968282,-0.0918966,-3.748935
2023-12-22 07:31:20.812999936,-0.1538438,-0.1320049,0.01737911,0.2398591,0.01725049,-0.1649662,-0.01110054,0.0382763,0.01098542,1.2411775199299997,-1.1155314788999997,2.245278229500001,1.968134,-0.09140903,-3.748831
2023-12-22 07:31:20.826999808,-0.1523013,-0.1321338,0.0173539,0.2241093,0.002699947,-0.1478479,-0.01015013,0.03618711,0.007258794,1.2310273899299995,-1.0793443688999995,2.2525370235000013,1.968093,-0.09102827,-3.748863
2023-12-22 07:31:20.841000192,-0.1515349,-0.1325917,0.01734827,0.187598,-0.01408172,-0.1243777,-0.009584852,0.03280413,0.0008459052,1.2214425379299998,-1.0465402388999996,2.253382928700001,1.96797,-0.09061486,-3.748866
2023-12-22 07:31:20.855000064,-0.1508454,-0.132993,0.01708142,0.1451714,-0.0242591,-0.1100115,-0.008932573,0.03164239,-0.006073556,1.2125099649299995,-1.0148978488999996,2.247309372700001,1.967911,-0.09013295,-3.748932
2023-12-22 07:31:20.868999936,-0.1495683,-0.1332823,0.01644462,0.1300062,-0.01694367,-0.1199523,-0.007206903,0.03316816,-0.01106255,1.2053030619299998,-0.9817296888999996,2.236246822700001,1.967872,-0.08958811,-3.74903
2023-12-22 07:31:20.881999872,-0.1475172,-0.1338077,0.0161527,0.1558146,-0.01691,-0.139107,-0.00520857,0.03644023,-0.01298797,1.2000944919299998,-0.9452894588999996,2.223258852700001,1.967847,-0.08901429,-3.749142
2023-12-22 07:31:20.896000000,-0.1452883,-0.1342672,0.01564903,0.1954014,-0.01837454,-0.166778,-0.00295012,0.03957371,-0.01312492,1.19714437193,-0.9057157488999996,2.2101339327000007,1.967913,-0.08842722,-3.749178
2023-12-22 07:31:20.910000128,-0.1427558,-0.1348287,0.01515968,0.2334507,-0.02108254,-0.1929628,-0.0004181173,0.04185358,-0.01310786,1.19672625463,-0.8638621688999997,2.197026072700001,1.967985,-0.0878718,-3.749308
2023-12-22 07:31:20.924000000,-0.1404471,-0.135484,0.01466378,0.2561812,-0.02799062,-0.2080228,0.001849414,0.04459551,-0.01338213,1.19857566863,-0.8192666588999997,2.1836439427000007,1.968075,-0.08719175,-3.749382
2023-12-22 07:31:20.938999808,-0.1374962,-0.1360603,0.01416116,0.2837513,-0.03141241,-0.2225951,0.003951833,0.04812075,-0.01356678,1.20252750163,-0.7711459088999997,2.1700771627000006,1.968165,-0.08643678,-3.749552
2023-12-22 07:31:20.953000192,-0.1339975,-0.1365903,0.01357502,0.3329982,-0.02997784,-0.2478699,0.005282147,0.05504683,-0.01423545,1.2078096486299998,-0.7160990788999997,2.1558417127000005,1.96825,-0.08531979,-3.74973
2023-12-22 07:31:20.967000064,-0.1295157,-0.13699,0.01284868,0.3999321,-0.01069165,-0.2882641,0.006127063,0.06811423,-0.01540745,1.21393671163,-0.6479848488999997,2.1404342627000004,1.968346,-0.08404856,-3.749988
2023-12-22 07:31:20.980000000,-0.1245057,-0.1371971,0.01195531,0.4800563,0.009016854,-0.3316263,0.006567667,0.08126367,-0.01675688,1.22050437863,-0.5667211788999997,2.1236773827000004,1.968448,-0.08270659,-3.750302
2023-12-22 07:31:20.993999872,-0.1195911,-0.1375468,0.01130518,0.5384463,0.01259075,-0.35585,0.006404037,0.09127693,-0.01999127,1.22690841563,-0.4754442488999997,2.1036861127000006,1.968547,-0.08137254,-3.750741
2023-12-22 07:31:21.008000000,-0.114982,-0.1379345,0.01092291,0.561125,0.009079468,-0.3536744,0.00673673,0.0971383,-0.02535534,1.2336451456300002,-0.3783059488999997,2.0783307727000007,1.968666,-0.08004084,-3.751221
2023-12-22 07:31:21.022000128,-0.1105751,-0.1384086,0.01064871,0.5669572,0.004633542,-0.3485748,0.007180224,0.09949453,-0.02955208,1.2408253696300002,-0.2788114188999997,2.0487786927000005,1.968801,-0.07861315,-3.751602
2023-12-22 07:31:21.036000000,-0.1055429,-0.1386064,0.01022458,0.5880446,0.001352997,-0.3429127,0.008363816,0.1009054,-0.03164954,1.24918918563,-0.1779060188999997,2.0171291527000004,1.969011,-0.07720728,-3.75204
2023-12-22 07:31:21.048999936,-0.10039,-0.1388122,0.009537071,0.6082464,0.01053668,-0.3574202,0.009734116,0.1019761,-0.03188712,1.25892330163,-0.0759299188999997,1.9852420327000004,1.969204,-0.07586636,-3.752456
2023-12-22 07:31:21.064000000,-0.09557341,-0.1390124,0.009029564,0.6173871,0.01774576,-0.3576721,0.01125439,0.1001155,-0.03229466,1.27017769163,0.0241855811000002,1.9529473727000004,1.969366,-0.07465097,-3.752946
2023-12-22 07:31:21.078000128,-0.09169679,-0.1391665,0.008952418,0.5888265,0.01191234,-0.331462,0.01143635,0.09447046,-0.03401576,1.28161404163,0.1186560411000002,1.9189316127000005,1.969557,-0.07355791,-3.753535
2023-12-22 07:31:21.091000064,-0.08879824,-0.1392139,0.009016177,0.5219025,0.005749677,-0.2741518,0.01116356,0.08501768,-0.03791204,1.29277760163,0.2036737211000003,1.8810195727000003,1.969695,-0.07268547,-3.754217
2023-12-22 07:31:21.105999872,-0.08684367,-0.1393204,0.008895041,0.428633,0.006786785,-0.2181674,0.01014562,0.07467151,-0.04321174,1.3029232216300002,0.2783452311000003,1.8378078327000005,1.969762,-0.07188542,-3.754962
2023-12-22 07:31:21.119000064,-0.08526007,-0.1391239,0.008595835,0.3346947,0.01282501,-0.1768169,0.008631629,0.06566933,-0.04747684,1.31155485063,0.3440145611000003,1.7903309927000004,1.969876,-0.07116418,-3.755657
2023-12-22 07:31:21.134000128,-0.0835535,-0.1390029,0.008104475,0.27597,0.02649005,-0.1628124,0.007068554,0.05760562,-0.04900941,1.31862340463,0.4016201811000003,1.7413215827000004,1.969906,-0.07050942,-3.756289
2023-12-22 07:31:21.147000064,-0.08185557,-0.1387521,0.007660465,0.2424258,0.03869158,-0.1508512,0.006040622,0.05094,-0.04795226,1.32466402663,0.4525601811000003,1.6933693227000004,1.969972,-0.07000828,-3.756907
2023-12-22 07:31:21.161999872,-0.08056264,-0.1384861,0.007397955,0.2116166,0.04574898,-0.1391967,0.005295474,0.04418834,-0.04497276,1.32995950063,0.4967485211000003,1.6483965627000003,1.970055,-0.06956954,-3.757415
2023-12-22 07:31:21.175000064,-0.07926762,-0.138027,0.007073833,0.1857268,0.05612837,-0.1212098,0.005361214,0.03741831,-0.04123908,1.33532071463,0.5341668311000003,1.6071574827000004,1.970145,-0.0692135,-3.757851
2023-12-22 07:31:21.188999936,-0.07760292,-0.137514,0.006401725,0.1772298,0.07277341,-0.1291464,0.005441992,0.03387514,-0.03765006,1.34076270663,0.5680419711000003,1.5695074227000003,1.970211,-0.06879872,-3.758239
2023-12-22 07:31:21.203000064,-0.07574865,-0.1370199,0.005855335,0.188402,0.08691946,-0.1462041,0.005178133,0.03423261,-0.03333232,1.34594083963,0.6022745811000003,1.5361751027000003,1.97026,-0.06822501,-3.758572
2023-12-22 07:31:21.216999936,-0.07334781,-0.136514,0.005328644,0.221505,0.09169015,-0.1591046,0.004499332,0.0364201,-0.02912882,1.35044017163,0.6386946811000003,1.5070462827000004,1.970296,-0.06768075,-3.75887
2023-12-22 07:31:21.231000064,-0.07118133,-0.1360809,0.004950628,0.247856,0.09038306,-0.1632725,0.003601412,0.0372031,-0.02649242,1.35404158363,0.6758977811000003,1.4805538627000003,1.970338,-0.0672512,-3.75925
2023-12-22 07:31:21.244999936,-0.06975974,-0.1358127,0.004780201,0.2333941,0.07788361,-0.145435,0.002415122,0.03491644,-0.02685131,1.35645670563,0.7108142211000004,1.4537025527000005,1.97036,-0.06694612,-3.759737
2023-12-22 07:31:21.257999872,-0.06896315,-0.1355318,0.004893946,0.1976013,0.0659152,-0.1051156,0.001683719,0.02972525,-0.02928972,1.35814042463,0.7405394711000004,1.4244128327000003,1.970381,-0.06668313,-3.760231
2023-12-22 07:31:21.272000000,-0.06799575,-0.1353485,0.004855722,0.1648562,0.05387892,-0.07821365,0.0009030188,0.02485055,-0.03167319,1.35904344343,0.7653900211000004,1.3927396427000005,1.970361,-0.06639172,-3.760769
2023-12-22 07:31:21.287000064,-0.06689861,-0.1350252,0.004786555,0.1496972,0.0487857,-0.0709288,-8.110888e-06,0.02418493,-0.03302315,1.3590353325420002,0.7895749511000004,1.3597164927000005,1.970344,-0.06595886,-3.761284
2023-12-22 07:31:21.300000000,-0.065062,-0.1346184,0.004511388,0.1656726,0.0539122,-0.0832103,-0.0007227845,0.02562481,-0.03256972,1.3583125480420002,0.8151997611000005,1.3271467727000004,1.97032,-0.0655845,-3.761754
2023-12-22 07:31:21.312999936,-0.06340875,-0.1345246,0.004304409,0.1914496,0.05121836,-0.100626,-0.001692992,0.02694178,-0.0314162,1.3566195560420002,0.8421415411000005,1.2957305727000004,1.970214,-0.06515159,-3.762133
2023-12-22 07:31:21.326999808,-0.06161138,-0.1344006,0.00425913,0.2085523,0.04132223,-0.1041885,-0.002175322,0.02720464,-0.03060915,1.3544442340420002,0.8693461811000005,1.2651214227000005,1.970141,-0.06483239,-3.762564
2023-12-22 07:31:21.342000128,-0.06021328,-0.1344568,0.004367728,0.2040138,0.02751242,-0.09240922,-0.002678526,0.02613604,-0.03046611,1.3517657080420002,0.8954822211000005,1.2346553127000002,1.970045,-0.06455082,-3.763001
2023-12-22 07:31:21.355000064,-0.05940874,-0.1343569,0.004652295,0.1819395,0.01929969,-0.06782618,-0.003390709,0.02341131,-0.03047517,1.3483749990420002,0.9188935311000004,1.2041801427,1.970019,-0.06428535,-3.763388
2023-12-22 07:31:21.369999872,-0.05789219,-0.1341018,0.004452776,0.1767254,0.02115046,-0.06600336,-0.003683026,0.01972753,-0.02957935,1.3446919730420002,0.9386210611000004,1.1746007927000002,1.969941,-0.06415337,-3.763855
2023-12-22 07:31:21.384000000,-0.0575974,-0.1338973,0.004540043,0.1427215,0.02563851,-0.0498886,-0.003646662,0.01951181,-0.0271438,1.3410453110420002,0.9581328711000006,1.1474569927000002,1.969898,-0.06373857,-3.764102
2023-12-22 07:31:21.398000128,-0.05513242,-0.1339556,0.004566361,0.186126,0.0221849,-0.07103895,-0.004414358,0.02038352,-0.02444997,1.3366309530420002,0.9785163911000004,1.1230070227000002,1.969749,-0.06356689,-3.76449
2023-12-22 07:31:21.412000000,-0.0543812,-0.1338081,0.004747803,0.1806501,0.01493983,-0.0578845,-0.005568089,0.01851859,-0.0236839,1.331062864042,0.9970349811000006,1.0993231227000002,1.969643,-0.06342336,-3.764913
2023-12-22 07:31:21.424999936,-0.05412174,-0.1337394,0.004952877,0.1305091,0.01467912,-0.03398517,-0.00676083,0.01422825,-0.02626603,1.3243020340420002,1.0112632311000005,1.0730570927000005,1.96951,-0.06340379,-3.765397
2023-12-22 07:31:21.438999808,-0.05387855,-0.1336605,0.004962278,0.09160965,0.01209436,-0.02046477,-0.008372864,0.008752732,-0.02920682,1.3159291700420002,1.0200159631000003,1.0438502727000003,1.969354,-0.06343906,-3.765913
2023-12-22 07:31:21.453999872,-0.05413928,-0.1336897,0.005710128,0.06111922,0.002408248,0.02127661,-0.01048561,0.00593771,-0.03204615,1.3054435600420002,1.0259536731000003,1.0118041227000003,1.969175,-0.06329672,-3.766422
2023-12-22 07:31:21.468000000,-0.05357039,-0.1334874,0.005807428,0.05559039,0.006968178,0.02064925,-0.0102677,0.009037227,-0.03082157,1.2951758600420002,1.0349909001000006,0.9809825527000005,1.969172,-0.06288528,-3.766667
2023-12-22 07:31:21.480999936,-0.05053133,-0.1337803,0.005243465,0.1470848,0.003412506,-0.05695938,-0.007823813,0.01849233,-0.02413882,1.2873520470420003,1.0534832301000006,0.9568437327000004,1.96913,-0.0622722,-3.766714
2023-12-22 07:31:21.494999808,-0.04595087,-0.1341802,0.004977772,0.2881251,-0.01594553,-0.1478071,-0.005288397,0.02949693,-0.01496831,1.2820636500420004,1.0829801601000006,0.9418754227000004,1.96912,-0.06179596,-3.76679
2023-12-22 07:31:21.508999936,-0.04288743,-0.1343634,0.004652819,0.3635751,-0.01967199,-0.1938395,-0.004489494,0.03437027,-0.009989705,1.2775741560420004,1.1173504301000006,0.9318857177000004,1.968992,-0.06144688,-3.767019
2023-12-22 07:31:21.522000128,-0.04206604,-0.134385,0.004681622,0.3062006,-0.01331348,-0.1567315,-0.006014207,0.03135572,-0.01174908,1.2715599490420004,1.1487061501000009,0.9201366377000004,1.968831,-0.06125562,-3.767377
2023-12-22 07:31:21.536000000,-0.0419245,-0.1342629,0.004918966,0.2089308,-0.003590355,-0.0970704,-0.007844005,0.022408,-0.01556544,1.2637159440420005,1.1711141501000006,0.9045711977000004,1.968712,-0.06121046,-3.767721
2023-12-22 07:31:21.549999872,-0.04217488,-0.1344716,0.005238679,0.123591,-0.01193213,-0.03705524,-0.009483461,0.01328947,-0.01942673,1.2542324830420004,1.1844036201000006,0.8851444677000004,1.968558,-0.06113972,-3.768102
2023-12-22 07:31:21.564999936,-0.04274305,-0.1347703,0.005536475,0.04573739,-0.02458289,0.008294305,-0.01084014,0.006211028,-0.02282907,1.2433923430420004,1.1906146481000006,0.8623153977000004,1.968354,-0.06119879,-3.768541
2023-12-22 07:31:21.579000064,-0.04396064,-0.1349727,0.005982184,-0.02542648,-0.03138648,0.05063513,-0.01277031,-0.0006253677,-0.02554286,1.2306220330420004,1.1899892804000003,0.8367725377000004,1.968073,-0.06132521,-3.768978
2023-12-22 07:31:21.592000000,-0.0447747,-0.1350657,0.006117379,-0.06307408,-0.02994411,0.07062229,-0.01387662,-0.005083962,-0.0246589,1.2167454130420003,1.1849053184000005,0.8121136377000003,1.967847,-0.06141828,-3.769297
2023-12-22 07:31:21.605999872,-0.04425273,-0.1352424,0.005845917,-0.0388154,-0.02561128,0.03681825,-0.01332668,-0.005743024,-0.01942413,1.2034187330420003,1.1791622944000004,0.7926895077000004,1.967718,-0.06137839,-3.769335
2023-12-22 07:31:21.620000000,-0.042594,-0.1352946,0.005550751,0.03382089,-0.02039618,-0.02787926,-0.01192656,-0.001262701,-0.01195805,1.1914921730420005,1.1778995934000005,0.7807314577000003,1.967567,-0.06139856,-3.769553
2023-12-22 07:31:21.634000128,-0.04159135,-0.1352251,0.004954903,0.07731391,-0.007840268,-0.07679042,-0.01163181,0.003170849,-0.006097734,1.1798603630420004,1.1810704424000005,0.7746337237000003,1.967417,-0.06129013,-3.769553
2023-12-22 07:31:21.648000000,-0.04099084,-0.1351307,0.004806293,0.08659054,0.002547221,-0.08565649,-0.01234808,0.002596124,-0.003142338,1.1675122830420004,1.1836665664000006,0.7714913857000003,1.967237,-0.06127676,-3.769595
2023-12-22 07:31:21.661999872,-0.04137154,-0.1350557,0.004514132,0.04509805,0.01265156,-0.06333631,-0.01351653,-0.001194652,-0.003214996,1.1539957530420004,1.1824719144000009,0.7682763897000003,1.967024,-0.06140024,-3.769688
2023-12-22 07:31:21.675000064,-0.04235905,-0.1351603,0.004460962,-0.01709614,0.007615173,-0.02658649,-0.0149893,-0.005944264,-0.005707428,1.1390064530420003,1.1765276504000006,0.7625689617000003,1.966779,-0.06158492,-3.769829
2023-12-22 07:31:21.688999936,-0.0431665,-0.1350482,0.004508573,-0.06187867,0.00664919,0.002102659,-0.01590912,-0.01033982,-0.007533599,1.1230973330420002,1.1661878304000006,0.7550353627000004,1.966503,-0.06187909,-3.770009
2023-12-22 07:31:21.703000064,-0.04371862,-0.1349581,0.004311605,-0.07869233,0.01083291,0.01978235,-0.01710814,-0.01168264,-0.007717247,1.1059891930420005,1.1545051904000003,0.7473181157000004,1.96621,-0.06201416,-3.770143
2023-12-22 07:31:21.716999936,-0.04365136,-0.1345995,0.004056158,-0.06242355,0.02302324,0.006189814,-0.01805463,-0.01038814,-0.005977542,1.0879345630420003,1.1441170504000004,0.7413405737000004,1.96598,-0.06210544,-3.770251
2023-12-22 07:31:21.732000000,-0.04341512,-0.1342307,0.003759636,-0.03468995,0.03746146,-0.01298509,-0.01841886,-0.006791755,-0.003625171,1.0695157030420004,1.1373252954000004,0.7377154027000004,1.965725,-0.06218888,-3.770394
2023-12-22 07:31:21.744999936,-0.04305159,-0.1338849,0.003696413,-0.001665701,0.0406303,-0.01981598,-0.01887992,-0.003427312,-0.002009482,1.0506357830420003,1.1338979834000005,0.7357059207000004,1.965428,-0.06213536,-3.770438
2023-12-22 07:31:21.759000064,-0.04308037,-0.133738,0.003838551,0.005514162,0.0431089,-0.0139045,-0.01940611,-0.001607241,-0.002009964,1.0312296730420003,1.1322907424000004,0.7336959567000004,1.965129,-0.0620792,-3.770509
2023-12-22 07:31:21.772999936,-0.04348473,-0.1332915,0.004027124,-0.008196333,0.04505801,0.008939982,-0.01992588,-0.001117488,-0.003384461,1.0113037930420004,1.1311732544000004,0.7303114957000004,1.964845,-0.0620454,-3.770701
2023-12-22 07:31:21.787000064,-0.04379635,-0.1327979,0.003878713,-0.0172543,0.04967393,0.01907692,-0.0197161,-0.0009600455,-0.004550917,0.9915876930420005,1.1302132089000003,0.7257605787000004,1.964584,-0.06197264,-3.770852
2023-12-22 07:31:21.801000192,-0.04352279,-0.132434,0.003752911,-0.01084799,0.05281483,0.007072389,-0.01898627,0.001011891,-0.004124116,0.9726014230420004,1.1312250999000004,0.7216364627000005,1.9643,-0.06195654,-3.770948
2023-12-22 07:31:21.815000064,-0.04278401,-0.1322271,0.003680735,0.01973807,0.04836036,-0.01471635,-0.01778734,0.004144021,-0.002231225,0.9548140830420004,1.1353691209000003,0.7194052377000005,1.96406,-0.061809,-3.770979
2023-12-22 07:31:21.828999936,-0.04186847,-0.1320843,0.003448267,0.05453543,0.04238743,-0.03568147,-0.01616076,0.008012205,-0.0007534642,0.9386533230420004,1.1433813259000003,0.7186517735000005,1.96385,-0.06159255,-3.771012
2023-12-22 07:31:21.842000128,-0.04096924,-0.1321263,0.003431171,0.08401407,0.02817118,-0.04728063,-0.01447186,0.01040956,0.0004050545,0.9241814630420004,1.1537908859000006,0.7190568280000005,1.963666,-0.06135355,-3.771053
2023-12-22 07:31:21.856000000,-0.04016927,-0.1320999,0.0033136,0.09483802,0.01698017,-0.05260708,-0.01310177,0.01085551,0.0006456431,0.9110796930420004,1.1646463959000006,0.7197024711000005,1.963497,-0.06116164,-3.771105
2023-12-22 07:31:21.869999872,-0.03971992,-0.1321864,0.003145433,0.08643801,0.01040774,-0.05470086,-0.01167331,0.009151359,0.0007848681,0.8994063830420003,1.1737977549000007,0.7204873392000005,1.963346,-0.06104942,-3.771108
2023-12-22 07:31:21.884999936,-0.03954099,-0.1320706,0.0030008,0.06393967,0.004150605,-0.0450506,-0.01049259,0.006720426,0.0004119684,0.8889137930420002,1.1805181809000007,0.7208993076000005,1.963207,-0.0609881,-3.771139
2023-12-22 07:31:21.898000128,-0.03951586,-0.1321708,0.003013964,0.04031494,0.004291748,-0.03062618,-0.009265756,0.00391534,0.0002308507,0.8796480370420002,1.1844335209000008,0.7211301583000005,1.963096,-0.06097379,-3.771161
2023-12-22 07:31:21.911000064,-0.03920911,-0.13219,0.003409132,0.03724064,-7.037845e-06,-0.01295723,-0.008661121,0.002882215,5.941815e-05,0.8709869160420002,1.1873157359000008,0.7211895764500005,1.962984,-0.06090188,-3.771235
2023-12-22 07:31:21.924999936,-0.0389193,-0.1323112,0.0037117,0.04190843,-0.008629174,0.007168262,-0.008344317,0.003799456,0.0003112473,0.8626425990420001,1.191115191900001,0.7215008237500005,1.962873,-0.06077003,-3.771316
2023-12-22 07:31:21.940000000,-0.03858797,-0.1322639,0.004287186,0.05377633,-0.01018281,0.01896692,-0.007396637,0.004694462,0.0006045136,0.8552459620420001,1.195809653900001,0.7221053373500005,1.962797,-0.06063263,-3.771343
2023-12-22 07:31:21.953000192,-0.03831301,-0.1322691,0.0043596,0.05498261,-0.007871154,0.02113334,-0.00652633,0.005079481,0.0008440181,0.8487196320420001,1.200889134900001,0.7229493554500005,1.96273,-0.06053231,-3.771366
2023-12-22 07:31:21.968000000,-0.0380122,-0.1323616,0.004611393,0.05377405,-0.01016952,0.01896738,-0.006078257,0.004079382,0.0007950702,0.8426413750420001,1.204968516900001,0.7237444256500005,1.962645,-0.06045114,-3.771401
2023-12-22 07:31:21.982000128,-0.03784115,-0.1326005,0.004939679,0.04890696,-0.01258049,0.01893053,-0.005329882,0.002833282,0.001214365,0.8373114930420001,1.2078017989000012,0.7249587906500006,1.962571,-0.06037964,-3.771428
2023-12-22 07:31:21.994999808,-0.03744658,-0.1327059,0.005016624,0.04827392,-0.01843468,0.01131918,-0.004363008,0.002541473,0.001838892,0.8329484850420001,1.2103432719000011,0.7267976826500006,1.962515,-0.06031373,-3.771447
2023-12-22 07:31:22.008999936,-0.03697745,-0.1328025,0.004911854,0.05200684,-0.02003493,-0.007562639,-0.003367049,0.003382739,0.00235967,0.8295814360420002,1.2137260109000012,0.7291573526500006,1.962484,-0.06024335,-3.771439
2023-12-22 07:31:22.023000064,-0.03638399,-0.1330519,0.004868343,0.06258847,-0.02237944,-0.0211293,-0.002967703,0.004225678,0.003009565,0.8266137330420001,1.2179516889000013,0.7321669176500006,1.962449,-0.0601557,-3.771408
2023-12-22 07:31:22.036999936,-0.03585561,-0.1332514,0.005080773,0.06549337,-0.02280276,-0.0245499,-0.002847322,0.004488184,0.003483694,0.8237664110420001,1.2224398729000012,0.7356506116500007,1.962411,-0.06005246,-3.771413
2023-12-22 07:31:22.051000064,-0.03557383,-0.133405,0.005130485,0.06024071,-0.02436836,-0.02094186,-0.00284833,0.00352415,0.003769508,0.8209180810420001,1.2259640229000013,0.7394201196500007,1.962366,-0.06000114,-3.77142
2023-12-22 07:31:22.064000000,-0.03546337,-0.1335126,0.005197546,0.04457639,-0.02501055,-0.01610447,-0.003144962,0.001992866,0.004263099,0.8177731190420001,1.2279568889000012,0.7436832186500006,1.962312,-0.05999336,-3.771383
2023-12-22 07:31:22.079000064,-0.03556427,-0.1336426,0.005119343,0.02226681,-0.0195455,-0.007681637,-0.00391194,0.0005157411,0.005464376,0.8138611790420002,1.2284726300000013,0.7491475946500007,1.962234,-0.06001863,-3.771305
2023-12-22 07:31:22.092999936,-0.03552632,-0.1336171,0.005118843,0.008733287,-0.01070045,-0.00101214,-0.005156369,-0.0002027365,0.006634054,0.8087048100420001,1.2282698935000014,0.7557816486500006,1.962129,-0.06002955,-3.771226
2023-12-22 07:31:22.105999872,-0.03557383,-0.1335736,0.005096088,0.002692149,-0.004516478,-0.0005592508,-0.006433579,-3.793457e-05,0.007827349,0.8022712310420002,1.2282319589300017,0.7636089976500007,1.962027,-0.06001178,-3.771153
2023-12-22 07:31:22.120999936,-0.03555998,-0.1336247,0.004895028,-0.002730947,-0.005101037,-0.01179237,-0.007065126,0.0004613625,0.008426237,0.7952061050420002,1.2286933214300015,0.7720352346500007,1.961928,-0.05999188,-3.771075
2023-12-22 07:31:22.134000128,-0.03576224,-0.1336482,0.004545986,-0.01894978,-0.001573927,-0.0181411,-0.007228989,0.0009757102,0.008282617,0.7879771160420002,1.2296690316300016,0.7803178516500007,1.961817,-0.05997605,-3.770984
2023-12-22 07:31:22.148000000,-0.03600372,-0.1335969,0.004265692,-0.02711556,-0.0001158832,-0.01934834,-0.008094444,0.0004558628,0.008271355,0.7798826720420001,1.2301248944300016,0.7885892066500007,1.961666,-0.05998167,-3.770894
2023-12-22 07:31:22.161999872,-0.03614959,-0.133611,0.004160183,-0.02981284,0.003555301,-0.01540494,-0.008980619,0.0004971065,0.008971238,0.7709020530420001,1.2306220009300015,0.7975604446500006,1.961506,-0.05995804,-3.770798
2023-12-22 07:31:22.176000000,-0.0361095,-0.1336057,0.004118463,-0.02006266,0.003586818,-0.01565473,-0.009335983,0.0009304466,0.01003332,0.761566070042,1.2315524475300017,0.8075937646500007,1.961376,-0.05992494,-3.770711
2023-12-22 07:31:22.188999936,-0.03579153,-0.1335672,0.003821647,-0.003862957,0.00540276,-0.02580407,-0.009350608,0.002156225,0.01125073,0.7522154620420001,1.2337086725300015,0.8188444946500006,1.961254,-0.05986973,-3.770605
2023-12-22 07:31:22.204000000,-0.03535958,-0.1334489,0.003578592,0.01618093,0.009288524,-0.03983446,-0.009187704,0.004831781,0.01307549,0.743027758042,1.2385404535300015,0.8319199846500006,1.96111,-0.05972616,-3.770416
2023-12-22 07:31:22.217999872,-0.03461864,-0.1331941,0.003335684,0.03761289,0.01742335,-0.05344024,-0.009253265,0.006805036,0.01466871,0.733774493042,1.2453454895300016,0.8465886946500006,1.960962,-0.05956842,-3.770214
2023-12-22 07:31:22.232000000,-0.034161,-0.1331291,0.003123038,0.05068296,0.02616139,-0.05601934,-0.00947712,0.00689739,0.01555472,0.724297373042,1.2522428795300016,0.8621434146500007,1.960805,-0.05944708,-3.77
2023-12-22 07:31:22.244999936,-0.03412941,-0.1328102,0.003011557,0.03734562,0.02710439,-0.04302883,-0.01022077,0.00565636,0.01519668,0.714076603042,1.2578992395300015,0.8773400946500006,1.960617,-0.05935663,-3.769838
2023-12-22 07:31:22.259000064,-0.03425321,-0.132581,0.002983432,0.01783013,0.03018075,-0.02362684,-0.01056926,0.003298915,0.01411308,0.703507343042,1.2611981545300015,0.8914531746500006,1.960438,-0.05932555,-3.769702
2023-12-22 07:31:22.272999936,-0.03427354,-0.1323316,0.003086289,0.005001226,0.03333045,-0.005452854,-0.01086963,0.002119135,0.01339779,0.6926377130420001,1.2633172895300016,0.9048509646500006,1.960273,-0.05930302,-3.769567
2023-12-22 07:31:22.288000000,-0.03406736,-0.1318658,0.003001167,0.01258096,0.04195895,-0.004745558,-0.01076808,0.002856146,0.0131339,0.6818696330420001,1.2661734355300016,0.9179848646500006,1.960115,-0.05924015,-3.769442
2023-12-22 07:31:22.301000192,-0.03338864,-0.1316075,0.002971339,0.03002432,0.04376501,-0.01280225,-0.01061476,0.00485704,0.01315628,0.671254873042,1.2710304755300017,0.9311411446500006,1.959953,-0.05910604,-3.769304
2023-12-22 07:31:22.315000064,-0.03303193,-0.1313469,0.002888554,0.04316249,0.04027421,-0.01999516,-0.01033881,0.006182073,0.01268898,0.660916063042,1.2772125485300017,0.9438301246500006,1.959794,-0.05894813,-3.769213
2023-12-22 07:31:22.328999936,-0.03277002,-0.1312014,0.002811141,0.04362636,0.0346535,-0.0236786,-0.009828689,0.006189089,0.01163798,0.651087374042,1.2834016375300017,0.9554681046500006,1.959646,-0.05881511,-3.76915
2023-12-22 07:31:22.342999808,-0.03267194,-0.1311913,0.002698058,0.03119447,0.02733611,-0.02209258,-0.008945207,0.005270782,0.0107328,0.642142167042,1.2886724195300017,0.9662009046500006,1.959536,-0.05876429,-3.769048
2023-12-22 07:31:22.357000192,-0.03259536,-0.1310677,0.002559799,0.02063667,0.02143495,-0.01934508,-0.007700369,0.003924444,0.009912711,0.634441798042,1.2925968635300016,0.9761136156500008,1.95945,-0.05874472,-3.768963
2023-12-22 07:31:22.371000064,-0.03259411,-0.1310794,0.002370016,0.01046342,0.01329064,-0.02238712,-0.006763721,0.003191595,0.009502265,0.627678077042,1.2957884585300017,0.9856158806500006,1.959388,-0.05870172,-3.768881
2023-12-22 07:31:22.384999936,-0.03243452,-0.1313,0.002298025,0.00774927,0.003307326,-0.02538901,-0.005874842,0.003198631,0.009093565,0.621803235042,1.2989870895300015,0.9947094456500006,1.959347,-0.05863334,-3.768792
2023-12-22 07:31:22.398999808,-0.03237819,-0.1312693,0.002029769,0.002673828,-0.001462722,-0.02801213,-0.005143919,0.003362013,0.008326172,0.616659316042,1.3023491025300018,1.0030356176500006,1.959292,-0.05858338,-3.76872
2023-12-22 07:31:22.412000000,-0.03243418,-0.1313862,0.001939544,-0.003450349,-0.004077772,-0.02172563,-0.004757854,0.002988211,0.007481041,0.611901462042,1.3053373135300017,1.0105166586500005,1.959227,-0.05854816,-3.768638
2023-12-22 07:31:22.426000128,-0.03262793,-0.1313386,0.001879846,-0.01354067,-0.002988451,-0.01363206,-0.004473235,0.00282513,0.007167585,0.6074282270420001,1.3081624435300017,1.0176842436500004,1.959164,-0.05850839,-3.76856
2023-12-22 07:31:22.440999936,-0.03265841,-0.1312616,0.001605341,-0.01510536,0.006990837,-0.01369257,-0.003933537,0.002449452,0.007363871,0.6034946900420001,1.3106118955300017,1.0250481146500003,1.95909,-0.05847618,-3.768475
2023-12-22 07:31:22.453999872,-0.03270222,-0.1309834,0.001652236,-0.01220051,0.01141463,-0.0169787,-0.003944289,0.00165483,0.008043771,0.5995504010420001,1.3122667255300018,1.0330918856500004,1.958998,-0.05844181,-3.768382
2023-12-22 07:31:22.468000000,-0.03264116,-0.1309382,0.001547805,-0.003551133,0.01472017,-0.01036785,-0.003667058,0.0008133655,0.008814546,0.5958833430420001,1.3130800910300018,1.0419064316500004,1.958942,-0.05844206,-3.768264
2023-12-22 07:31:22.482000128,-0.03249613,-0.1306428,0.001572182,-0.00062957,0.02188338,-0.009215214,-0.003404561,0.0006222652,0.009423531,0.5924787820420001,1.313702356230002,1.0513299626500003,1.958899,-0.05842747,-3.768159
2023-12-22 07:31:22.496000000,-0.03228971,-0.1303337,0.001555274,0.009706385,0.02963636,-0.007934129,-0.003102546,0.0001080803,0.009818424,0.5893762360420001,1.3138104365300018,1.0611483866500004,1.958855,-0.05842673,-3.768061
2023-12-22 07:31:22.508999936,-0.03222559,-0.1301905,0.001651356,0.01518635,0.02997403,0.001583557,-0.003171727,-0.0008103104,0.009861929,0.586204509042,1.313000126130002,1.0710103156500004,1.958812,-0.05843595,-3.767978
2023-12-22 07:31:22.523000064,-0.03252191,-0.1299995,0.001972425,0.01006864,0.03047876,0.01615567,-0.003069363,-0.002419771,0.00886919,0.583135146042,1.310580355130002,1.0798795056500003,1.958769,-0.05847138,-3.767928
2023-12-22 07:31:22.536999936,-0.03298902,-0.1298907,0.002291207,-0.006269102,0.02494592,0.03654419,-0.002663893,-0.004667215,0.00733848,0.580471253042,1.305913140130002,1.0872179856500004,1.958747,-0.05857468,-3.767888
2023-12-22 07:31:22.552000000,-0.03345676,-0.1297474,0.002362608,-0.02949741,0.01717505,0.04702414,-0.001416064,-0.006473102,0.006215509,0.5790551890419999,1.299440038130002,1.0934334946500004,1.958756,-0.05871222,-3.767857
2023-12-22 07:31:22.564999936,-0.03372996,-0.1298008,0.002408448,-0.03835671,0.01020454,0.03550526,5.869928e-05,-0.006035284,0.0053787,0.579113888322,1.293404754130002,1.0988121946500005,1.958781,-0.05879397,-3.767848
2023-12-22 07:31:22.579000064,-0.03359628,-0.1299468,0.002004417,-0.03003099,0.002058572,0.004714454,0.001598072,-0.002936826,0.005523869,0.5807119603219999,1.290467928130002,1.1043360636500004,1.958819,-0.05879275,-3.767844
2023-12-22 07:31:22.592999936,-0.03315524,-0.1300316,0.001613725,-0.008781589,-0.002965389,-0.02905265,0.003228653,0.0004291462,0.006271271,0.5839406133219999,1.290897074330002,1.1106073346500005,1.958887,-0.05873129,-3.767814
2023-12-22 07:31:22.607000064,-0.03294553,-0.1302877,0.001471999,0.009514643,-0.01188067,-0.04249043,0.004426912,0.00257718,0.006742286,0.5883675253219999,1.293474254330002,1.1173496206500002,1.958985,-0.05864966,-3.767719
2023-12-22 07:31:22.620999936,-0.03295937,-0.1305325,0.001352595,0.008182654,-0.02353508,-0.03475689,0.005055976,0.00283809,0.006242703,0.5934235013219998,1.296312344330002,1.1235923236500005,1.959078,-0.05860676,-3.767648
2023-12-22 07:31:22.635000064,-0.03326103,-0.130787,0.001440358,-0.004560023,-0.02933432,-0.02091916,0.005559797,0.001504008,0.005484307,0.5989832983219998,1.297816352330002,1.1290766306500002,1.959162,-0.05859227,-3.767586
2023-12-22 07:31:22.648000000,-0.03360485,-0.1308488,0.001307189,-0.02293891,-0.02717591,-0.00585933,0.005783693,-0.0003036631,0.004692159,0.6047669913219998,1.297512689230002,1.1337687896500002,1.95923,-0.05862137,-3.767547
2023-12-22 07:31:22.663000064,-0.03393044,-0.1308748,0.001248005,-0.03501778,-0.01905261,0.003470673,0.005125476,-0.002667146,0.004430575,0.6098924673219999,1.294845543230002,1.1381993646500002,1.959277,-0.05869534,-3.767505
2023-12-22 07:31:22.676000000,-0.03419178,-0.1308147,0.001264879,-0.03889746,-0.005900841,0.008155979,0.004098375,-0.004895924,0.005014497,0.6139908423219999,1.289949619230002,1.14321386165,1.959309,-0.058802,-3.767455
2023-12-22 07:31:22.690000128,-0.03457671,-0.1305505,0.00141334,-0.03826478,0.008509386,0.02072875,0.00359209,-0.006074526,0.005835211,0.6175829323219999,1.283875093230002,1.14904907265,1.959342,-0.05889524,-3.767401
2023-12-22 07:31:22.704000000,-0.03490406,-0.1303706,0.001467266,-0.03928078,0.01968654,0.02816763,0.0030929,-0.00695774,0.006348426,0.6206758323219999,1.276917353230002,1.15539749865,1.959364,-0.05899271,-3.767334
2023-12-22 07:31:22.717999872,-0.03536578,-0.1302439,0.001685329,-0.04099849,0.02028142,0.03801023,0.002496888,-0.008496224,0.006424835,0.6231727203219999,1.268421129230002,1.16182233365,1.959377,-0.05911615,-3.767269
2023-12-22 07:31:22.732000000,-0.03594887,-0.129977,0.001791637,-0.04995448,0.0211974,0.04814155,0.002288463,-0.01054274,0.006194354,0.6254611833219998,1.257878389230002,1.16801668765,1.959391,-0.05929653,-3.767226
2023-12-22 07:31:22.746000128,-0.03668875,-0.1298952,0.00192174,-0.06315879,0.02183539,0.05084726,0.00232835,-0.01254562,0.006147165,0.6277895333219998,1.245332769230002,1.17416385265,1.95942,-0.05951461,-3.767172
2023-12-22 07:31:22.760000000,-0.03719188,-0.1297669,0.001924295,-0.07067081,0.0182561,0.04183433,0.002627372,-0.01393917,0.006456805,0.6304169053219998,1.231393599230002,1.18062065765,1.959454,-0.05974497,-3.767109
2023-12-22 07:31:22.773999872,-0.03763025,-0.1295697,0.001550888,-0.07303904,0.01939194,0.02282081,0.003359973,-0.01336833,0.007020366,0.6337768783219998,1.218025269230002,1.18764102365,1.959494,-0.05994828,-3.76703
2023-12-22 07:31:22.787000064,-0.03795894,-0.129655,0.00135401,-0.06850351,0.01390337,0.006859716,0.003475001,-0.01172112,0.007514919,0.6372518793219998,1.206304149230002,1.1951559426499998,1.959529,-0.06009125,-3.766929
2023-12-22 07:31:22.801000192,-0.03816339,-0.1295616,0.001263107,-0.05918164,0.008429679,0.003494809,0.003246553,-0.01036389,0.007179426,0.6404984323219998,1.195940259230002,1.2023353686499998,1.959568,-0.06021633,-3.766866
2023-12-22 07:31:22.815000064,-0.0387169,-0.1295043,0.001177915,-0.05914386,0.007379554,0.005637947,0.003056658,-0.009583821,0.006428108,0.6435550903219998,1.1863564382300018,1.2087634766499995,1.95961,-0.06034597,-3.766825
2023-12-22 07:31:22.828999936,-0.03933439,-0.1293776,0.0009632856,-0.06756426,0.01152533,0.006215822,0.00267244,-0.00867228,0.005389885,0.6462275303219998,1.1776841582300015,1.2141533616499998,1.959651,-0.06045899,-3.766809
2023-12-22 07:31:22.842999808,-0.03972778,-0.1292001,0.000899855,-0.0669195,0.01801975,0.009951998,0.002248939,-0.007901446,0.004698371,0.6484764693219998,1.1697827122300015,1.2188517326499997,1.959689,-0.0605329,-3.766786
2023-12-22 07:31:22.857000192,-0.0399694,-0.1289216,0.000984652,-0.05836711,0.02457216,0.01466107,0.001855008,-0.006122928,0.004823686,0.6503314773219998,1.1636597842300018,1.2236754186499996,1.959721,-0.06055136,-3.76675
2023-12-22 07:31:22.871000064,-0.03997324,-0.1287226,0.001080581,-0.03423382,0.02892356,0.01866868,0.00196809,-0.003696274,0.00527805,0.6522995673219998,1.159963510230002,1.2289534686499997,1.959749,-0.06054145,-3.766714
2023-12-22 07:31:22.884999936,-0.0397831,-0.1284747,0.001002827,-0.01203321,0.02875347,0.008188945,0.001942022,-0.0002903012,0.005523853,0.6542415893219998,1.159673209030002,1.2344773216499996,1.95977,-0.06047338,-3.766685
2023-12-22 07:31:22.898999808,-0.03955667,-0.1282368,0.0009001018,0.004768401,0.03380394,-0.002797084,0.00211185,0.003111868,0.005286365,0.6563534393219999,1.162785077030002,1.2397636866499997,1.959794,-0.06035444,-3.766653
2023-12-22 07:31:22.913000192,-0.03928663,-0.1279204,0.0007568384,0.01858814,0.03781268,-0.01265719,0.002294405,0.005364512,0.004693149,0.6586478443219999,1.168149589030002,1.2444568356499994,1.959812,-0.06022312,-3.766625
2023-12-22 07:31:22.926000128,-0.0391935,-0.1277442,0.000870429,0.01908396,0.03728057,-0.01185271,0.002730892,0.006557071,0.004009182,0.6613787363219998,1.174706660030002,1.248466017649999,1.959848,-0.06008682,-3.766603
2023-12-22 07:31:22.940000000,-0.03909189,-0.127613,0.0008226968,0.01707,0.03151396,-0.01150894,0.003515925,0.006220975,0.003244562,0.6648946613219998,1.180927635030002,1.2517105796499992,1.959908,-0.06000824,-3.766598
2023-12-22 07:31:22.953999872,-0.03905658,-0.1277145,0.0008272436,0.01168373,0.01833207,-0.00683844,0.004661706,0.005039374,0.002703649,0.6695563673219999,1.185967009030002,1.2544142286499993,1.959999,-0.05996263,-3.766581
2023-12-22 07:31:22.969000192,-0.03903209,-0.12758,0.0006403709,0.004788219,0.01225429,-0.01087321,0.006045307,0.003024317,0.002102333,0.6756016743219999,1.188991326030002,1.2565165616499994,1.960109,-0.05998943,-3.766597
2023-12-22 07:31:22.983000064,-0.03917074,-0.127713,0.0006843582,-0.004528241,-0.0006952813,-0.002323828,0.007074097,0.000750573,0.001622778,0.6826757713219999,1.189741899030002,1.2581393396499994,1.960228,-0.0600469,-3.766603
2023-12-22 07:31:22.996999936,-0.03937581,-0.1278597,0.0006628409,-0.0146206,-0.009563326,0.0008053426,0.007939638,-0.001883199,0.001020246,0.6906154093219998,1.187858700030002,1.2591595856499993,1.960351,-0.06013818,-3.766601
2023-12-22 07:31:23.009999872,-0.03979899,-0.1281092,0.0006951094,-0.02707451,-0.01430316,0.006537489,0.008893246,-0.003922438,0.0007227696,0.6995086553219998,1.183936262030002,1.2598823552499994,1.960478,-0.06021294,-3.766556
2023-12-22 07:31:23.024000000,-0.04011826,-0.1282969,0.0007008845,-0.03343948,-0.02147395,0.01421089,0.009361346,-0.006143279,0.000210155,0.7088700013219998,1.177792983030002,1.2600925102499994,1.960602,-0.06032336,-3.766527
2023-12-22 07:31:23.038000128,-0.04079966,-0.1284628,0.0009237081,-0.04728197,-0.02289051,0.02855819,0.009994148,-0.008092415,-0.0006439763,0.7188641493219998,1.169700568030002,1.2594485339499994,1.96075,-0.06045193,-3.766542
2023-12-22 07:31:23.052000000,-0.0415715,-0.128458,0.0009460617,-0.06863235,-0.02297796,0.03400468,0.009967301,-0.009535572,-0.001883292,0.7288314503219998,1.160164996030002,1.2575652419499994,1.960886,-0.0606069,-3.766596
2023-12-22 07:31:23.065999872,-0.04211802,-0.1285124,0.001124736,-0.07305344,-0.02094209,0.03934063,0.009820461,-0.01000821,-0.002968991,0.7386519113219998,1.150156786030002,1.2545962509499995,1.960999,-0.06073697,-3.76665
2023-12-22 07:31:23.079000064,-0.04234648,-0.1285562,0.001281799,-0.05589518,-0.01665408,0.04191734,0.01012257,-0.008469079,-0.003030345,0.7487744813219999,1.141687707030002,1.2515659059499995,1.9611,-0.06079496,-3.766673
2023-12-22 07:31:23.092999936,-0.04228253,-0.1287415,0.001317187,-0.0339254,-0.01555932,0.0267857,0.01026365,-0.005656529,-0.002116237,0.7590381313219998,1.136031178030002,1.2494496689499994,1.961209,-0.06079708,-3.766664
2023-12-22 07:31:23.107000064,-0.0421167,-0.1287693,0.001419623,-0.01197567,-0.0118681,0.01615676,0.0107527,-0.003005536,-0.001260313,0.7697908313219998,1.133025642030002,1.2481893559499997,1.961349,-0.06078214,-3.766694
2023-12-22 07:31:23.120999936,-0.0420954,-0.1288276,0.001473711,0.002851184,-0.01104505,0.01216011,0.01070478,-0.001801466,-0.001346308,0.7804956113219997,1.131224176030002,1.2468430479499997,1.961482,-0.06078394,-3.76674
2023-12-22 07:31:23.135000064,-0.04219621,-0.1288308,0.001629668,0.001948538,-0.01089151,0.01707703,0.009945288,-0.001388445,-0.002400083,0.7904408993219998,1.129835731030002,1.2444429649499995,1.961533,-0.06077332,-3.766799
2023-12-22 07:31:23.148999936,-0.04235594,-0.1289317,0.001782106,-0.003096048,-0.01273444,0.02314428,0.008987968,-0.001528184,-0.003725172,0.7994288673219998,1.128307547030002,1.2407177929499995,1.961546,-0.06077064,-3.766869
2023-12-22 07:31:23.163000064,-0.04236249,-0.1290915,0.001978599,-0.002380385,-0.01233219,0.02441991,0.008642808,-0.001268435,-0.004511933,0.8080716753219997,1.1270391120300018,1.2362058599499994,1.961614,-0.06077002,-3.766938
2023-12-22 07:31:23.176999936,-0.04207627,-0.1291158,0.002091021,0.01054156,-0.01309792,0.0148079,0.00873425,0.0001773844,-0.00446705,0.8168059253219998,1.1272164964300018,1.2317388099499995,1.961753,-0.06075804,-3.767004
2023-12-22 07:31:23.190000128,-0.04168434,-0.1293011,0.002144844,0.02712034,-0.01395796,-0.00131227,0.009242513,0.002183114,-0.003732508,0.8260484383219998,1.1293996104300017,1.2280063019499996,1.961911,-0.06070643,-3.767037
2023-12-22 07:31:23.204999936,-0.04143044,-0.1293885,0.002089639,0.0347222,-0.01534732,-0.009576658,0.009540432,0.003471626,-0.003197055,0.8355888703219998,1.1328712364300018,1.2248092469499996,1.962036,-0.06064782,-3.767051
2023-12-22 07:31:23.219000064,-0.041481,-0.1295054,0.002022704,0.02639926,-0.01695556,-0.007113763,0.009540183,0.003545202,-0.003395362,0.8451290533219998,1.1364164384300015,1.2214138849499996,1.962153,-0.06061677,-3.767081
2023-12-22 07:31:23.232999936,-0.04148922,-0.1295953,0.00212158,0.008069306,-0.01351335,-0.002481342,0.009339876,0.00308108,-0.003913439,0.8544689293219998,1.1394975184300018,1.2175004459499996,1.962277,-0.06058528,-3.767137
2023-12-22 07:31:23.246000128,-0.04170647,-0.1295653,0.002108274,-0.006557807,-0.006233023,0.002437755,0.009327914,0.002484547,-0.004051914,0.8637968433219998,1.1419820654300017,1.2134485319499997,1.962413,-0.06057041,-3.767206
2023-12-22 07:31:23.260000000,-0.04168471,-0.1294732,0.002149973,-0.001020041,0.0013274,0.004091787,0.009468121,0.002223123,-0.003190377,0.8732649643219998,1.1442051884300015,1.2102581549499998,1.962551,-0.06054891,-3.767246
2023-12-22 07:31:23.273999872,-0.04147395,-0.129331,0.0021591,0.01164533,0.009326435,-0.001083941,0.00970628,0.003415544,-0.001616846,0.8829712443219998,1.1476207324300018,1.20864130895,1.962684,-0.06048252,-3.767258
2023-12-22 07:31:23.288000000,-0.04110169,-0.1291451,0.002154779,0.02732898,0.01597489,-0.007507278,0.01016494,0.004367405,-0.0001366572,0.8931361843219998,1.1519881374300018,1.20850465175,1.962829,-0.0604057,-3.767255
2023-12-22 07:31:23.302000128,-0.0409459,-0.1291112,0.002365478,0.03087232,0.01431727,-0.003579487,0.01031245,0.004444336,0.0004786134,0.9034486343219998,1.1564324734300018,1.20898326515,1.962999,-0.0603307,-3.767259
2023-12-22 07:31:23.315000064,-0.04090361,-0.1290491,0.002489046,0.02359099,0.009749157,0.009151677,0.01045865,0.003088753,-4.40951e-05,0.913907284322,1.159521226430002,1.20893917005,1.963194,-0.06031033,-3.767312
2023-12-22 07:31:23.328999936,-0.04132998,-0.1289612,0.002600701,0.001203724,0.005620182,0.02119827,0.01044095,0.0005550136,-0.001513663,0.924348234322,1.160076240030002,1.20742550705,1.963386,-0.06035813,-3.767403
2023-12-22 07:31:23.342999808,-0.04179731,-0.1289594,0.002605694,-0.02707681,0.00704833,0.0275257,0.01020413,-0.001710369,-0.003279775,0.9345523643219998,1.158365871030002,1.20414573205,1.96353,-0.06044824,-3.767476
2023-12-22 07:31:23.357000192,-0.04227474,-0.128761,0.002609529,-0.04171915,0.01065268,0.03000731,0.01009671,-0.002530987,-0.004796359,0.9446490743219998,1.155834884030002,1.19934937305,1.963673,-0.06052047,-3.76758
2023-12-22 07:31:23.372000000,-0.04215958,-0.1286642,0.002616243,-0.03043674,0.01178578,0.01976362,0.01015172,-0.001480173,-0.005456222,0.9548007943219998,1.154354711030002,1.19389315105,1.963846,-0.06051253,-3.767691
2023-12-22 07:31:23.384999936,-0.04196535,-0.1286817,0.002652773,-0.0005954915,0.009029855,0.003169078,0.0102555,0.0009253294,-0.005275105,0.9650562943219998,1.155280040430002,1.18861804605,1.964036,-0.06043283,-3.767782
2023-12-22 07:31:23.398999808,-0.04125844,-0.1286403,0.002570647,0.0294861,0.008483854,-0.01068477,0.01041537,0.002928567,-0.00464853,0.9754716643219998,1.158208607430002,1.18396951605,1.964219,-0.06035059,-3.76784
2023-12-22 07:31:23.413000192,-0.04091804,-0.1284339,0.002578326,0.04315793,0.0106439,-0.01447198,0.01026773,0.004065919,-0.004143708,0.985739394322,1.162274526430002,1.17982580805,1.964356,-0.06028618,-3.767879
2023-12-22 07:31:23.426000128,-0.04062972,-0.1285051,0.002720955,0.04361471,0.01247704,-0.013581,0.0097867,0.003851309,-0.004065363,0.995526094322,1.166125835430002,1.17576044505,1.964496,-0.06024794,-3.767916
2023-12-22 07:31:23.440000000,-0.04059479,-0.1283206,0.002863272,0.03417232,0.0114522,-0.004396761,0.009265641,0.002549576,-0.004377096,1.004791735322,1.1686754114300022,1.17138334905,1.964682,-0.06024761,-3.76804
2023-12-22 07:31:23.454999808,-0.0407396,-0.1281615,0.002861959,0.01561819,0.01535239,0.001946658,0.008968097,0.0006612325,-0.004853563,1.0137598323219998,1.169336643930002,1.16652978605,1.964864,-0.06029543,-3.76817
2023-12-22 07:31:23.469000192,-0.04116435,-0.1280834,0.002840063,-0.009618343,0.01700731,0.01361679,0.008557292,-0.00137303,-0.00502556,1.022317124322,1.167963613930002,1.16150422605,1.964961,-0.06038843,-3.768228
2023-12-22 07:31:23.482000128,-0.04145777,-0.1280068,0.002899936,-0.02585659,0.01545862,0.01505112,0.007882007,-0.002638402,-0.005312542,1.030199131322,1.165325211930002,1.15619168405,1.965025,-0.06047945,-3.768277
2023-12-22 07:31:23.496999936,-0.04172122,-0.1278497,0.002706801,-0.03354665,0.01508915,0.01223833,0.00751282,-0.002792201,-0.004894336,1.037711951322,1.1625330109300018,1.15129734805,1.965094,-0.06055276,-3.768329
2023-12-22 07:31:23.509999872,-0.04184277,-0.1277062,0.00246355,-0.03548732,0.01909118,0.0003698622,0.007338681,-0.00201573,-0.004378782,1.045050632322,1.1605172809300015,1.14691856605,1.965175,-0.06058326,-3.768399
2023-12-22 07:31:23.524000000,-0.04207527,-0.1275307,0.00240429,-0.02995515,0.02513548,-0.004604992,0.007219866,-0.001891344,-0.004153231,1.052270498322,1.1586259369300018,1.1427653350499998,1.96526,-0.06061292,-3.768475
2023-12-22 07:31:23.538000128,-0.0421728,-0.12732,0.002368456,-0.02318911,0.02325255,0.002994541,0.006700115,-0.002378779,-0.003788388,1.058970613322,1.1562471579300018,1.1389769470499995,1.965311,-0.06067893,-3.768517
2023-12-22 07:31:23.552000000,-0.0423749,-0.12728,0.00254925,-0.0217472,0.02082076,0.01193103,0.006405202,-0.002941329,-0.00339222,1.065375815322,1.1533058289300018,1.1355847270499997,1.965367,-0.06074291,-3.768543
2023-12-22 07:31:23.565999872,-0.04243148,-0.1272359,0.002552462,-0.01592838,0.0161024,0.01112071,0.006054096,-0.003708188,-0.003140611,1.071429911322,1.1495976409300015,1.1324441160499996,1.965445,-0.06081267,-3.768575
2023-12-22 07:31:23.579000064,-0.04240526,-0.1271086,0.002535812,-0.01314388,0.0151187,0.0116802,0.005701634,-0.003477712,-0.002868666,1.077131545322,1.1461199289300017,1.1295754500499997,1.965551,-0.06084093,-3.768613
2023-12-22 07:31:23.594000128,-0.04248064,-0.1268751,0.00259918,-0.009897102,0.01577903,0.008812718,0.005259471,-0.003100898,-0.002602846,1.082391016322,1.1430190309300017,1.1269726040499997,1.965632,-0.06086026,-3.768653
2023-12-22 07:31:23.608000000,-0.04259501,-0.1267617,0.002647997,-0.01175956,0.01788441,0.005600676,0.00478619,-0.002552516,-0.002716767,1.087177206322,1.1404665149300015,1.1242558370499998,1.965658,-0.0608871,-3.768693
2023-12-22 07:31:23.620999936,-0.04278168,-0.1267246,0.002502987,-0.02035496,0.01644164,0.005400921,0.004230521,-0.002576002,-0.003345939,1.091407727322,1.1378905129300017,1.12090989805,1.965677,-0.06093855,-3.768751
2023-12-22 07:31:23.636000000,-0.04328748,-0.1266148,0.002529182,-0.03078891,0.01275674,0.01047628,0.003837791,-0.003053449,-0.004223246,1.095245518322,1.1348370639300016,1.1166866520499998,1.965741,-0.06099654,-3.768871
2023-12-22 07:31:23.648999936,-0.04358606,-0.1265634,0.002292166,-0.03939634,0.01476372,0.008295598,0.003573899,-0.003457207,-0.004723132,1.098819417322,1.1313798569300015,1.1119635200499998,1.965817,-0.06107527,-3.769
2023-12-22 07:31:23.663000064,-0.04362505,-0.1263827,0.002088996,-0.03614789,0.01740984,-0.003214023,0.003347933,-0.00320127,-0.004429466,1.102167350322,1.1281785869300016,1.1075340540499998,1.965898,-0.06113359,-3.769113
2023-12-22 07:31:23.676999936,-0.04344957,-0.126308,0.001926199,-0.01826758,0.01900468,-0.01254733,0.003552158,-0.00215204,-0.003682252,1.105719508322,1.1260265469300017,1.10385180205,1.965997,-0.06115184,-3.76919
2023-12-22 07:31:23.691000064,-0.04324852,-0.1261378,0.001828098,-0.00431639,0.02063383,-0.02241232,0.003569115,-0.0009545636,-0.002535017,1.1092886233219998,1.1250719833300018,1.10131678505,1.966092,-0.06114682,-3.769246
2023-12-22 07:31:23.704999936,-0.0431138,-0.1260095,0.001766865,0.008706428,0.01677987,-0.02115383,0.003370575,-0.001010204,-0.0021298,1.1126591983219998,1.1240617793300018,1.0991869850499998,1.966233,-0.06112811,-3.769286
2023-12-22 07:31:23.717999872,-0.04309969,-0.1257479,0.001657089,0.0009885827,0.02288681,-0.01267428,0.00338528,-0.002237935,-0.002446676,1.1160444783219998,1.121823844330002,1.09674030905,1.966378,-0.06115326,-3.769352
2023-12-22 07:31:23.732999936,-0.04364961,-0.1256794,0.001693122,-0.01693859,0.02273573,0.00330734,0.002944557,-0.004444405,-0.003626894,1.1189890353219998,1.1173794393300018,1.09311341505,1.966468,-0.06126495,-3.769444
2023-12-22 07:31:23.746000128,-0.04411856,-0.1254624,0.001793891,-0.03814744,0.02645458,0.01802177,0.002711009,-0.006094331,-0.00495121,1.1217000443219998,1.111285108330002,1.08816220505,1.966539,-0.06140795,-3.769573
2023-12-22 07:31:23.760000000,-0.0444367,-0.1252977,0.001870951,-0.04305751,0.02205122,0.02644553,0.002762485,-0.006348588,-0.005800706,1.124462529322,1.104936520330002,1.08236149905,1.966619,-0.06151352,-3.769706
2023-12-22 07:31:23.773999872,-0.04448174,-0.1251972,0.00181382,-0.03489946,0.01908186,0.02118975,0.003485652,-0.004758338,-0.005576946,1.1279481813219998,1.100178182330002,1.07678455305,1.966747,-0.06150572,-3.769825
2023-12-22 07:31:23.788000000,-0.0444371,-0.1252958,0.001738923,-0.01574144,0.01200136,0.00689907,0.004309279,-0.002802267,-0.004926104,1.132257460322,1.0973759153300018,1.07185844905,1.966886,-0.06146668,-3.769912
2023-12-22 07:31:23.802000128,-0.04434843,-0.1252579,0.001763103,-0.001505213,0.003995907,-0.0009303546,0.005298633,-0.001228173,-0.004198723,1.137556093322,1.0961477423300017,1.06765972605,1.967042,-0.06143772,-3.769998
2023-12-22 07:31:23.816000000,-0.04428253,-0.1253974,0.001738131,0.001800574,-0.00482892,-0.004421603,0.005841627,-0.0004360644,-0.003800294,1.1433977203219998,1.0957116779300016,1.06385943205,1.967194,-0.06142603,-3.770074
2023-12-22 07:31:23.829999872,-0.04436708,-0.1254382,0.001725729,-0.004252623,-0.004525834,-0.002153092,0.006289975,-0.0005737765,-0.003794758,1.149687695322,1.0951379014300016,1.0600646740500002,1.967329,-0.06141829,-3.770137
2023-12-22 07:31:23.844000000,-0.04451445,-0.1255044,0.001662367,-0.01214945,-0.005576227,-0.001138455,0.006112473,-0.000826799,-0.003920262,1.1558001683219998,1.0943111024300016,1.05614441205,1.967435,-0.06139499,-3.770176
2023-12-22 07:31:23.857000192,-0.04463303,-0.1255648,0.001598833,-0.01492595,-0.006967276,-0.001880718,0.005749277,-0.0008875416,-0.003943004,1.161549445322,1.0934235608300016,1.0522014080500002,1.967536,-0.06137098,-3.770213
2023-12-22 07:31:23.871000064,-0.04469045,-0.125563,0.001517634,-0.01376576,-0.004894281,-0.004028012,0.005851753,-0.0001838515,-0.003691806,1.1674011983219998,1.0932397093300017,1.0485096020500002,1.967677,-0.06136327,-3.770266
2023-12-22 07:31:23.885999872,-0.04464253,-0.1255838,0.001569938,-0.004724628,-0.005087186,-0.0008443599,0.006045983,0.0005443654,-0.003243102,1.1734471813219998,1.0937840747300014,1.04526650005,1.967827,-0.06133507,-3.770306
2023-12-22 07:31:23.900000000,-0.04458932,-0.1256288,0.001592613,0.0006151621,-0.005606171,-9.017194e-06,0.006252318,0.0006708379,-0.002819933,1.1796994993219998,1.0944549126300014,1.04244656705,1.967947,-0.06130379,-3.770333
2023-12-22 07:31:23.913000192,-0.04470429,-0.1257785,0.001634367,-0.005643889,-0.01208895,0.003567529,0.006255752,0.0008588484,-0.002373562,1.1859552513219995,1.0953137610300014,1.04007300505,1.968052,-0.06122915,-3.770337
2023-12-22 07:31:23.927000064,-0.04485404,-0.1258287,0.00158172,-0.013549,-0.00965748,0.002638509,0.006551051,0.0001413779,-0.002234513,1.1925063023219995,1.0954551389300011,1.03783849205,1.968178,-0.06118574,-3.770355
2023-12-22 07:31:23.940999936,-0.04497104,-0.1258299,0.001407398,-0.01771836,-0.004863834,-0.004567028,0.006519523,-0.001121034,-0.001901195,1.1990258253219996,1.0943341049300013,1.0359372970499998,1.968304,-0.06124284,-3.770402
2023-12-22 07:31:23.954999808,-0.04511369,-0.1257944,0.001252924,-0.02074048,-0.0013183,-0.007574345,0.006179369,-0.001136086,-0.001358797,1.2052051943219997,1.0931980189300012,1.0345785000499998,1.968415,-0.0612739,-3.770436
2023-12-22 07:31:23.969000192,-0.04512921,-0.1258151,0.001206497,-0.01517361,-0.000910464,-0.006261458,0.005970178,-0.001229971,-0.0006671519,1.2111753723219998,1.0919680479300011,1.0339113481499995,1.968523,-0.06128753,-3.770443
2023-12-22 07:31:23.983000064,-0.04511862,-0.1258474,0.001225352,-0.008441243,-0.00302756,-0.003030251,0.005656021,-0.002056001,-0.0002939124,1.216831393322,1.0899120469300012,1.0336174357499996,1.968621,-0.06131909,-3.770445
2023-12-22 07:31:23.996999936,-0.04532682,-0.1259488,0.001419635,-0.01218344,-0.009836633,0.01169957,0.005105002,-0.003329645,-0.0004934922,1.221936395322,1.0865824019300012,1.0331239435499997,1.968719,-0.06137908,-3.77046
2023-12-22 07:31:24.009999872,-0.04592936,-0.1258351,0.001574667,-0.02828923,-0.007675493,0.02676385,0.004915391,-0.004531735,-0.001327084,1.226851786322,1.0820506669300012,1.0317968595499998,1.968831,-0.06147685,-3.77052
2023-12-22 07:31:24.023000064,-0.04643699,-0.1257593,0.001595202,-0.04179903,-0.0007570076,0.02927049,0.004397642,-0.00566089,-0.002652725,1.231249428322,1.0763897769300013,1.02914413455,1.968922,-0.06159624,-3.770607
2023-12-22 07:31:24.038000128,-0.04680641,-0.1257172,0.001632884,-0.05248707,0.00617126,0.02587303,0.003840898,-0.005507739,-0.003676896,1.235090326322,1.0708820379300013,1.02546723855,1.968956,-0.06167969,-3.770703
2023-12-22 07:31:24.052000000,-0.04690823,-0.1258022,0.001576204,-0.04269657,0.004775998,0.01927083,0.003378485,-0.004357765,-0.004474306,1.238468811322,1.0665242729300013,1.0209929325499998,1.96899,-0.06173173,-3.770801
2023-12-22 07:31:24.064999936,-0.04684826,-0.1257659,0.001486707,-0.02499397,0.003052276,0.004947194,0.003335959,-0.002500061,-0.004651314,1.241804770322,1.0640242119300012,1.0163416185499998,1.969043,-0.06174227,-3.770895
2023-12-22 07:31:24.080000000,-0.04673362,-0.1258696,0.001444748,-0.004726538,-0.005193438,-0.005267227,0.003321962,-0.0006397674,-0.004331428,1.245126732322,1.0633844445300011,1.01201019055,1.969126,-0.06173396,-3.770981
2023-12-22 07:31:24.092999936,-0.04647515,-0.1259381,0.001344683,0.008323871,-0.005866648,-0.01472921,0.003172492,0.0005297214,-0.003949323,1.248299224322,1.063914165930001,1.0080608675499998,1.969196,-0.06172415,-3.771065
2023-12-22 07:31:24.107000064,-0.04630026,-0.1259522,0.001374518,0.014809,-0.004186853,-0.01163791,0.002837537,0.0005336942,-0.003878806,1.251136761322,1.0644478601300011,1.00418206155,1.96921,-0.0617065,-3.771134
2023-12-22 07:31:24.120999936,-0.04634667,-0.1258821,0.001361415,0.006644419,0.001106722,-0.006166984,0.002169827,-0.0003139006,-0.003850036,1.2533065883219998,1.0641339595300012,1.00033202555,1.969209,-0.06172328,-3.771208
2023-12-22 07:31:24.135000064,-0.04655524,-0.1257954,0.001394855,-0.006409748,0.004151975,0.003491643,0.001725591,-0.001760296,-0.003934866,1.2550321793219998,1.0623736635300012,0.99639715955,1.969239,-0.06180052,-3.771307
2023-12-22 07:31:24.148999936,-0.0467618,-0.1256601,0.001343015,-0.0159547,0.009802453,0.004281824,0.001526188,-0.002998007,-0.00417192,1.2565583673219998,1.0593756565300012,0.99222523955,1.969288,-0.06191193,-3.771439
2023-12-22 07:31:24.163000064,-0.04687316,-0.1256264,0.001416384,-0.01410186,0.007638572,0.007471184,0.001202111,-0.002666445,-0.004223134,1.2577604783219998,1.0567092115300012,0.98800210555,1.969307,-0.06195989,-3.77154
2023-12-22 07:31:24.176000000,-0.04685954,-0.1256617,0.001485949,-0.006883728,0.002440281,0.006908723,0.0008053069,-0.0007868696,-0.003755999,1.2585657852219998,1.0559223419300012,0.98424610655,1.969269,-0.06190005,-3.771559
2023-12-22 07:31:24.191000064,-0.04662124,-0.1256772,0.001424189,0.006406561,0.001439675,-0.004353174,0.0006246616,0.0006150712,-0.003448457,1.259190446822,1.0565374131300012,0.98079764955,1.969233,-0.06183701,-3.771578
2023-12-22 07:31:24.204999936,-0.04644012,-0.1256277,0.001259126,0.01039496,0.00463555,-0.01451135,0.0007700113,0.001691233,-0.003397943,1.259960458122,1.0582286461300012,0.97739970655,1.9693,-0.06186085,-3.771689
2023-12-22 07:31:24.219000064,-0.04632005,-0.1255416,0.001168493,0.0087738,0.007706083,-0.0172101,0.0007406758,0.001998596,-0.003466379,1.2607011339219998,1.0602272421300012,0.97393332755,1.969364,-0.06189611,-3.771808
2023-12-22 07:31:24.232999936,-0.04630854,-0.1255927,0.001193729,0.008740285,0.002102766,-0.006673314,0.000509921,0.001947535,-0.00328301,1.2612110549219997,1.0621747771300012,0.97065031755,1.96936,-0.0618698,-3.771857
2023-12-22 07:31:24.246000128,-0.04628902,-0.1256701,0.001148188,0.005746207,-0.002575094,-0.008095738,0.0005659905,0.001961729,-0.002832253,1.2617770454219996,1.0641365061300012,0.96781806455,1.969326,-0.06181215,-3.771862
2023-12-22 07:31:24.260000000,-0.04631696,-0.125711,0.001071854,0.0006440506,-0.003498444,-0.008615752,0.0009457009,0.002246995,-0.002534573,1.2627227463219997,1.0663835011300011,0.96528349155,1.969328,-0.0617642,-3.771886
2023-12-22 07:31:24.275000064,-0.04634975,-0.1257128,0.0009564739,-0.004001679,-0.001474669,-0.01026783,0.001112733,0.002357582,-0.002554503,1.2638354793219997,1.068741083130001,0.96272898855,1.969405,-0.06178424,-3.771982
2023-12-22 07:31:24.288000000,-0.04637587,-0.1257043,0.0009065298,-0.004481748,0.0003198337,-0.00877724,0.001202802,0.002350336,-0.002707238,1.2650382813219996,1.071091419130001,0.96002175055,1.969478,-0.06179839,-3.772081
2023-12-22 07:31:24.302000128,-0.04645957,-0.1258,0.0008646986,-0.008176939,-0.004605237,-0.007091013,0.001106133,0.002510141,-0.00264319,1.2661444143219995,1.0736015601300009,0.95737856055,1.969477,-0.06178359,-3.772107
2023-12-22 07:31:24.316000000,-0.04652572,-0.1259038,0.000788481,-0.01094045,-0.008368,-0.008022886,0.001095655,0.001973956,-0.002580949,1.2672400693219996,1.075575516130001,0.95479761155,1.969459,-0.06180139,-3.772117
2023-12-22 07:31:24.329999872,-0.04664348,-0.1259887,0.0007831836,-0.01327753,-0.01015517,-0.0035785,0.001360389,0.001149158,-0.002347198,1.2686004583219996,1.076724674130001,0.9524504135499998,1.969468,-0.06182664,-3.772125
2023-12-22 07:31:24.342999808,-0.04664778,-0.1260768,0.0007655984,-0.008626581,-0.01105471,-0.004037241,0.001393541,0.0007694389,-0.001717611,1.2699939993219995,1.0774941130300009,0.9507328025499998,1.969514,-0.06183041,-3.772129
2023-12-22 07:31:24.357000192,-0.04651329,-0.1260913,0.0007517887,0.002044494,-0.007475056,-0.006412921,0.001527049,0.0009723708,-0.0009896504,1.2715210483219996,1.0784664838300009,0.9497431521499998,1.969565,-0.06181611,-3.772125
2023-12-22 07:31:24.371000064,-0.04631318,-0.1261008,0.0006282674,0.009247227,-0.003425472,-0.0150344,0.001186776,0.001153232,-0.0002035061,1.2727078243219996,1.079619715830001,0.94953964605,1.969546,-0.06177789,-3.772062
2023-12-22 07:31:24.384999936,-0.04622706,-0.1260374,0.0006599557,0.01082319,0.001883091,-0.009502537,0.00120324,0.0008555808,-2.343487e-05,1.2739110643219995,1.0804752966300009,0.9495162111799998,1.969539,-0.0617447,-3.772015
2023-12-22 07:31:24.398999808,-0.0463827,-0.1260556,0.0006800061,-0.001275859,0.0001710195,-0.0007249041,0.000832977,-0.0001368216,-0.0005311097,1.2747440413219997,1.080338475030001,0.9489851014799998,1.969519,-0.06175816,-3.77202
2023-12-22 07:31:24.413000192,-0.04685274,-0.1261034,0.0008545117,-0.01663928,-0.0009991523,0.01319796,0.000671519,-0.001737794,-0.001595851,1.2754155603219994,1.0786006810300008,0.9473892504799998,1.969498,-0.06180871,-3.772068
2023-12-22 07:31:24.427000064,-0.04737758,-0.1260928,0.0009104237,-0.0347749,-0.001329679,0.0221638,0.0006173336,-0.003240808,-0.002757729,1.2760328939219994,1.075359873030001,0.9446315214799996,1.969485,-0.06188856,-3.772134
2023-12-22 07:31:24.440000000,-0.04754164,-0.1261147,0.0009772032,-0.03871238,-0.005928231,0.02563793,0.0006288899,-0.003744248,-0.00367971,1.2766617838219994,1.0716156250300009,0.9409518114799996,1.969491,-0.06195748,-3.772193
2023-12-22 07:31:24.456000000,-0.04757189,-0.1262363,0.0009688959,-0.02729241,-0.009226106,0.01959411,0.001013304,-0.002465896,-0.003810678,1.2776750878219991,1.069149729030001,0.9371411334799996,1.969515,-0.06197458,-3.772233
2023-12-22 07:31:24.470000128,-0.04740172,-0.1263496,0.001001014,-0.0003007473,-0.01266794,0.004300201,0.001679334,-4.379841e-05,-0.003458398,1.2793544218219994,1.069105930620001,0.9336827354799996,1.969531,-0.06193245,-3.772276
2023-12-22 07:31:24.482000128,-0.04685753,-0.1266279,0.0009027366,0.02297507,-0.01641916,-0.013333,0.002179714,0.002575499,-0.002704788,1.2815341358219994,1.071681429620001,0.9309779474799996,1.969523,-0.06186302,-3.772303
2023-12-22 07:31:24.496000000,-0.04636079,-0.1267581,0.0008231374,0.03785546,-0.01808682,-0.02175267,0.002681748,0.004239084,-0.002146839,1.2842158838219997,1.075920513620001,0.9288311084799996,1.969526,-0.06178366,-3.77233
2023-12-22 07:31:24.509999872,-0.04612215,-0.1268335,0.0007438622,0.03644957,-0.01535406,-0.02624037,0.002778257,0.00468793,-0.001974979,1.2869941408219994,1.080608443620001,0.9268561294799996,1.969564,-0.06170631,-3.772336
2023-12-22 07:31:24.524000000,-0.04606494,-0.1268125,0.0007757256,0.02994037,-0.01441687,-0.02033226,0.002476498,0.003773187,-0.002406697,1.2894706388219994,1.084381630620001,0.9244494324799998,1.969589,-0.06166459,-3.772366
2023-12-22 07:31:24.538000128,-0.04608591,-0.1269654,0.0009871842,0.02037063,-0.01077703,-0.006522684,0.002024447,0.0018837,-0.003345584,1.2914950858219991,1.086265330620001,0.9211038484799998,1.969561,-0.06166822,-3.772429
2023-12-22 07:31:24.552000000,-0.04611546,-0.1269565,0.001016533,0.008521558,-0.009029181,0.007366101,0.001491084,0.0005261677,-0.004215212,1.292986169821999,1.0867914983200009,0.91688863648,1.969525,-0.06169069,-3.772513
2023-12-22 07:31:24.565999872,-0.0461931,-0.1269539,0.001156691,0.004328673,-0.006160538,0.01321775,0.001310432,-8.643576e-05,-0.00482505,1.2942966018219992,1.086705062560001,0.91206358648,1.96952,-0.06170325,-3.772576
2023-12-22 07:31:24.579000064,-0.04621507,-0.1270054,0.0013011,0.005263512,-0.007237815,0.01480694,0.001488885,0.0001828718,-0.004640443,1.2957854868219991,1.086887934360001,0.90742314348,1.969544,-0.06169446,-3.772598
2023-12-22 07:31:24.592999936,-0.04611939,-0.127022,0.001311976,0.009193281,-0.005177842,0.00672096,0.001764513,0.0006909006,-0.004211118,1.2975499998219993,1.087578834960001,0.90321202548,1.969565,-0.0616806,-3.772618
2023-12-22 07:31:24.607000064,-0.04602176,-0.1271235,0.001397986,0.01222823,-0.008883025,0.005297063,0.001921197,0.0008830155,-0.003773761,1.2994711968219992,1.088461850460001,0.8994382644799999,1.96955,-0.06166467,-3.772665
2023-12-22 07:31:24.620999936,-0.04596946,-0.1272077,0.001478536,0.01153883,-0.0103825,0.006122241,0.002033151,0.0005958676,-0.003675312,1.3015043478219992,1.089057718060001,0.8957629524799998,1.969534,-0.06166358,-3.772719
2023-12-22 07:31:24.635000064,-0.04602382,-0.1272303,0.001510656,0.004331052,-0.007566951,0.006535381,0.002112577,0.0003296565,-0.003622837,1.303616924821999,1.089387374560001,0.8921401154799998,1.969585,-0.06165881,-3.772762
2023-12-22 07:31:24.648999936,-0.04595391,-0.1271835,0.001530658,0.006160384,-0.001614726,0.003747222,0.002107883,-0.0001610863,-0.003095669,1.3057248078219992,1.089226288260001,0.8890444464799998,1.969647,-0.06166312,-3.772789
2023-12-22 07:31:24.663000064,-0.04589714,-0.12714,0.001650409,0.009401716,0.0004904617,0.007555033,0.00213743,0.0004751027,-0.002263543,1.3078622378219993,1.089701390960001,0.8867809034799998,1.969703,-0.06162508,-3.772801
2023-12-22 07:31:24.676999936,-0.04570702,-0.1270739,0.001721822,0.01798176,0.003041517,0.005666285,0.002440564,0.001220634,-0.001086655,1.310302801821999,1.0909220249600011,0.8856942484799998,1.969753,-0.06157229,-3.772798
2023-12-22 07:31:24.691000064,-0.04541348,-0.1271336,0.00193854,0.0272865,0.001369537,0.009097492,0.002940342,0.001673165,-3.666757e-05,1.3132431438219994,1.092595189960001,0.8856575809099998,1.969818,-0.06151009,-3.772774
2023-12-22 07:31:24.704999936,-0.04548021,-0.1272215,0.002215063,0.02105764,-0.008467368,0.01901984,0.003209092,0.001664309,0.0006106743,1.3164522358219994,1.094259498960001,0.8862682552099997,1.969908,-0.06147761,-3.772738
2023-12-22 07:31:24.719000064,-0.04573019,-0.1272966,0.002416377,0.00713809,-0.0127079,0.0243318,0.003733914,0.0004274379,0.0004715701,1.320186149821999,1.094686936860001,0.8867398253099997,1.970011,-0.06149549,-3.77272
2023-12-22 07:31:24.732999936,-0.04596646,-0.127319,0.002426724,-0.007275413,-0.01417763,0.02461703,0.003951999,-0.001011948,7.646414e-05,1.3241381488219994,1.093674988860001,0.8868162894499997,1.970077,-0.06153426,-3.772715
2023-12-22 07:31:24.747000064,-0.04618713,-0.12746,0.002547915,-0.01935221,-0.01734691,0.02239931,0.003794577,-0.001657732,0.0002134771,1.3279327258219995,1.092017256860001,0.8870297665499997,1.970099,-0.06150995,-3.772656
2023-12-22 07:31:24.760999936,-0.04623429,-0.1276263,0.002469102,-0.01656885,-0.01738247,0.01645096,0.004034817,-0.001596353,0.0008667003,1.3319675428219997,1.090420903860001,0.8878964668499997,1.97014,-0.06147353,-3.772572
2023-12-22 07:31:24.773999872,-0.04619784,-0.1277828,0.002411276,-0.007333002,-0.01855182,0.0001827912,0.004289563,-0.000837835,0.001603003,1.3362571058219994,1.089583068860001,0.8894994698499997,1.970287,-0.06148249,-3.77253
2023-12-22 07:31:24.788000000,-0.04602171,-0.1278901,0.002431758,0.00519204,-0.01733384,-0.003495731,0.004510493,-8.74346e-05,0.002516486,1.3407675988219994,1.089495634260001,0.8920159558499997,1.970431,-0.06147395,-3.772474
2023-12-22 07:31:24.802000128,-0.04590537,-0.1279506,0.002445688,0.009830637,-0.01350851,-0.003642534,0.003995978,0.0001565699,0.002808926,1.3447635768219994,1.089652204160001,0.8948248818499998,1.970498,-0.06146003,-3.772418
2023-12-22 07:31:24.816000000,-0.04601613,-0.1279221,0.002520974,0.001733429,-0.006917857,0.004163506,0.003254681,-0.0001305164,0.002671829,1.3480182578219997,1.089521687760001,0.8974967108499997,1.970539,-0.06145621,-3.772375
2023-12-22 07:31:24.829999872,-0.04622891,-0.1277972,0.002667797,-0.007044411,0.001820759,0.0152592,0.002669081,-0.0007694692,0.002106727,1.3506873388219995,1.088752218560001,0.8996034378499997,1.970602,-0.0614706,-3.772366
2023-12-22 07:31:24.842999808,-0.04641902,-0.1276617,0.002787976,-0.009575051,0.005141643,0.02187581,0.002311319,-0.00106393,0.001737512,1.3529986578219997,1.087688288560001,0.9013409498499998,1.970709,-0.06149287,-3.772375
2023-12-22 07:31:24.857000192,-0.0465088,-0.1275602,0.00303123,-0.00722774,0.009574875,0.02637809,0.002499715,-0.0002118729,0.00191139,1.3554983728219994,1.087476415660001,0.9032523398499998,1.970825,-0.06147248,-3.772369
2023-12-22 07:31:24.871000064,-0.04634459,-0.1275955,0.003190755,0.005055615,0.006223014,0.01973646,0.002687754,0.001296227,0.002100915,1.3581861268219997,1.088772642660001,0.9053532548499996,1.970905,-0.06143353,-3.772355
2023-12-22 07:31:24.884999936,-0.04614098,-0.1277266,0.003162974,0.01917572,0.001671279,0.009770093,0.003375626,0.003046814,0.002540006,1.3615617528219994,1.091819456660001,0.9078932608499998,1.971001,-0.06137492,-3.772325
2023-12-22 07:31:24.898999808,-0.0457556,-0.1276533,0.00316391,0.02748596,-0.00178423,-0.001758524,0.00431147,0.00416253,0.002958418,1.3658732228219994,1.0959819866600011,0.9108516788499996,1.971128,-0.06131018,-3.772302
2023-12-22 07:31:24.913000192,-0.04549727,-0.127702,0.003154369,0.02860659,-0.003517238,-0.01075695,0.00476896,0.004157339,0.002843711,1.3706421828219997,1.1001393256600012,0.9136953898499998,1.971278,-0.06127407,-3.772292
2023-12-22 07:31:24.927000064,-0.04552146,-0.1278221,0.003223444,0.0269907,-0.01075143,-0.003248664,0.004945553,0.003014416,0.002206858,1.3755877358219994,1.1031537416600012,0.9159022478499996,1.971427,-0.0612743,-3.772292
2023-12-22 07:31:24.940999936,-0.04551015,-0.1280946,0.00345933,0.01818981,-0.01861514,0.006627865,0.005043917,0.001939405,0.001596666,1.3806316528219995,1.1050931466600011,0.9174989138499996,1.971529,-0.06126083,-3.772269
2023-12-22 07:31:24.953999872,-0.0455886,-0.1281766,0.00334332,0.004725351,-0.01997584,0.006459439,0.005309996,0.0008403788,0.0007666328,1.3859416488219996,1.1059335254600011,0.9182655466499996,1.971632,-0.06128629,-3.772275
2023-12-22 07:31:24.969000192,-0.04573484,-0.1282483,0.003353789,-0.006434553,-0.01832219,0.004104006,0.005361981,0.000204514,-1.391198e-05,1.3913036298219996,1.106138039460001,0.9182516346699996,1.971766,-0.06131189,-3.772302
2023-12-22 07:31:24.983000064,-0.04587193,-0.1283338,0.003358618,-0.009910777,-0.01643066,0.004560721,0.005351596,0.0003405655,-0.0003754687,1.3966552258219995,1.106478604960001,0.9178761659699995,1.971915,-0.06132327,-3.772329
2023-12-22 07:31:24.996000000,-0.0459782,-0.1284393,0.00336134,-0.01294776,-0.01634572,0.003527702,0.005198022,0.00113921,-0.0001520112,1.4018532478219996,1.1076178149600011,0.9177241547699996,1.97202,-0.06129435,-3.772319
2023-12-22 07:31:25.009999872,-0.04602047,-0.1285395,0.003382511,-0.008288562,-0.01602153,0.005305329,0.005393687,0.001535979,8.286501e-05,1.4072469348219996,1.1091537939600011,0.9178070197799996,1.972084,-0.06124199,-3.772274
2023-12-22 07:31:25.024000000,-0.04608026,-0.128657,0.003323623,-0.009713082,-0.01567032,0.0006419325,0.005157561,0.001784174,0.0003674685,1.4124044958219997,1.110937967960001,0.9181744882799996,1.972137,-0.06119416,-3.772224
2023-12-22 07:31:25.038000128,-0.04607492,-0.1287195,0.003369006,-0.004358801,-0.01384523,0.001582671,0.005161773,0.001525596,0.0006416241,1.4175662688219997,1.1124635639600011,0.9188161123799996,1.972268,-0.06119517,-3.772228
2023-12-22 07:31:25.052000000,-0.04599188,-0.1288272,0.003510258,0.005419753,-0.01611343,0.005749207,0.005128405,0.001608423,0.00150587,1.4226946738219997,1.114071986960001,0.9203219823799996,1.972396,-0.06118111,-3.772205
2023-12-22 07:31:25.065999872,-0.04562939,-0.1289007,0.003576798,0.01883842,-0.01728811,0.001316407,0.004954959,0.001806595,0.002363002,1.4276496328219996,1.115878581960001,0.9226849843799996,1.972465,-0.06114911,-3.772156
2023-12-22 07:31:25.080000000,-0.04544322,-0.1289865,0.003500618,0.02363857,-0.01175926,-0.009276359,0.00477472,0.001909155,0.003278996,1.4324243528219995,1.117787736960001,0.9259639803799996,1.972489,-0.06111753,-3.77208
2023-12-22 07:31:25.094000128,-0.04526838,-0.1290159,0.003337107,0.02361842,-0.007150331,-0.01332974,0.004600661,0.001541466,0.003804489,1.4370250138219995,1.119329202960001,0.9297684693799996,1.972538,-0.06110992,-3.772018
2023-12-22 07:31:25.108000000,-0.04529548,-0.1290142,0.003411749,0.01227753,-0.004999264,-0.009449862,0.004495249,0.0005997643,0.003512828,1.4415202628219996,1.119928967260001,0.9332812973799997,1.972671,-0.06113034,-3.772002
2023-12-22 07:31:25.120999936,-0.04560766,-0.1290792,0.003528748,-0.006624495,-0.00846053,0.006601274,0.004127247,-0.000842882,0.002334719,1.4456475098219996,1.119086085260001,0.9356160163799996,1.972796,-0.06118249,-3.772016
2023-12-22 07:31:25.135000064,-0.04623248,-0.129194,0.003704707,-0.02947149,-0.0095111,0.02232982,0.003613197,-0.002377661,0.000715722,1.4492607068219996,1.1167084242600012,0.9363317383799996,1.972801,-0.06127069,-3.772062
2023-12-22 07:31:25.148999936,-0.04666858,-0.1292792,0.003767187,-0.03965306,-0.01465279,0.02776159,0.002886444,-0.003331105,-0.0007131938,1.4521471508219996,1.1133773192600012,0.9356185445799996,1.972762,-0.06137209,-3.772132
2023-12-22 07:31:25.163000064,-0.04677254,-0.1293691,0.003819251,-0.03621326,-0.01431158,0.02307171,0.002916264,-0.002598395,-0.001261501,1.4550634148219996,1.1107789242600012,0.9343570435799996,1.972785,-0.06141109,-3.772181
2023-12-22 07:31:25.176999936,-0.04665658,-0.1293969,0.003621916,-0.01686221,-0.0137537,0.007615788,0.00343494,-0.0004811677,-0.0006209277,1.4584983548219996,1.1102977565600012,0.9337361158799996,1.972908,-0.06137918,-3.772178
2023-12-22 07:31:25.190000128,-0.04644874,-0.1296178,0.003608573,0.00219939,-0.0153525,-0.01060575,0.003916925,0.002133975,0.0006285436,1.4624152798219996,1.1124317315600012,0.9343646594799996,1.973034,-0.06129009,-3.772132
2023-12-22 07:31:25.204000000,-0.04575126,-0.1297042,0.003408215,0.02614969,-0.01462917,-0.02869388,0.004525588,0.004085788,0.001907224,1.4669408678219995,1.1165175195600012,0.9362718834799996,1.973144,-0.06119991,-3.772095
2023-12-22 07:31:25.217999872,-0.04541234,-0.1299748,0.003366112,0.03444628,-0.01782337,-0.03152129,0.004726545,0.0045999,0.002792259,1.4716674128219995,1.121117419560001,0.9390641424799996,1.97325,-0.06112488,-3.77204
2023-12-22 07:31:25.232000000,-0.04542667,-0.1300673,0.003457782,0.03151206,-0.01980039,-0.02391466,0.004660762,0.003559877,0.002725791,1.4763281748219996,1.1246772965600014,0.9417899334799996,1.97336,-0.061091,-3.77201
2023-12-22 07:31:25.246000128,-0.04544139,-0.1301042,0.0033933,0.01657287,-0.01523844,-0.01330964,0.004431422,0.001801425,0.00241695,1.4807595968219995,1.1264787215600014,0.9442068834799996,1.973481,-0.06110938,-3.771991
2023-12-22 07:31:25.260000000,-0.0455258,-0.1301084,0.00343706,0.001225254,-0.007611046,0.001065728,0.004305901,7.123106e-05,0.002419314,1.4850654978219997,1.1265499526200011,0.9466261974799997,1.973591,-0.06114873,-3.771972
2023-12-22 07:31:25.272999936,-0.04569574,-0.130108,0.003532467,-0.004721043,-0.007122424,0.007842072,0.003991503,-0.001011061,0.002777959,1.4890570008219994,1.125538891620001,0.9494041564799997,1.973674,-0.06119658,-3.771933
2023-12-22 07:31:25.287000064,-0.04577196,-0.1301075,0.003631975,-0.004446574,-0.004936599,0.01060358,0.004350562,-0.00137814,0.003397903,1.4934075628219994,1.1241607516200014,0.9528020594799996,1.973771,-0.06123273,-3.77188
2023-12-22 07:31:25.301000192,-0.04576838,-0.1302107,0.003658433,-0.001720663,-0.008474188,0.006564831,0.004647421,-0.00153458,0.00410535,1.4980549838219994,1.1226261716200014,0.9569074094799996,1.973863,-0.06127582,-3.771787
2023-12-22 07:31:25.316000000,-0.04583416,-0.1303452,0.003565258,-0.006703359,-0.01225227,-0.0002232759,0.004946196,-0.001552198,0.004722277,1.503001179821999,1.1210739736200015,0.9616296864799996,1.973958,-0.06132542,-3.771678
2023-12-22 07:31:25.328999936,-0.04600486,-0.1305555,0.003415066,-0.01369726,-0.01448697,-0.001868292,0.005255006,-0.001716292,0.004718702,1.5082561858219994,1.1193576816200017,0.9663483884799996,1.974057,-0.06137811,-3.771591
2023-12-22 07:31:25.342000128,-0.04619902,-0.1306769,0.003399714,-0.01947296,-0.01799115,0.000660049,0.005336493,-0.002335274,0.004516124,1.513592678821999,1.1170224076200015,0.9708645124799996,1.974147,-0.06142872,-3.77154
2023-12-22 07:31:25.357000192,-0.04649617,-0.1308343,0.003326719,-0.02715011,-0.01934101,3.116419e-05,0.005405712,-0.002382222,0.004687405,1.5189983908219993,1.1146401856200014,0.9755519174799996,1.974241,-0.06147191,-3.771475
2023-12-22 07:31:25.371000064,-0.04657919,-0.1307707,0.003167858,-0.02719241,-0.01474161,-0.00401267,0.005616129,-0.002308684,0.005042813,1.5246145198219994,1.1123315016200015,0.9805947304799996,1.974343,-0.06154698,-3.771409
2023-12-22 07:31:25.384000000,-0.04648533,-0.1307296,0.003115823,-0.01844107,-0.006713609,-0.009582703,0.005717472,-0.001659966,0.006021745,1.5303319918219993,1.1106715356200014,0.9866164754799996,1.974446,-0.06159134,-3.771312
2023-12-22 07:31:25.398000128,-0.04642316,-0.1308048,0.003077398,-0.004758017,-0.0009238082,-0.01100762,0.00552628,-5.94141e-05,0.007173399,1.5358582718219993,1.110612121520001,0.9937898744799996,1.974532,-0.06157115,-3.771194
