time,acceleration_x,acceleration_y,acceleration_z
1701072040653,0.009874486,-0.001859402,0.0001925894
1701072040668,0.0212258759999999,-0.0044880219999999,0.0067594344
1701072040683,0.031835076,-0.0066246049999999,0.0134749743999999
1701072040704,0.041474127,-0.008642627,0.0205629144
1701072040720,0.050612989,-0.010397205,0.0278957654
1701072040740,0.059088324,-0.011749123,0.0356211844
1701072040756,0.067263411,-0.0124268856,0.0436567313999999
1701072040773,0.0754849309999999,-0.0131093807,0.0519188553999999
1701072040790,0.083593374,-0.0138735645999999,0.0601041043999999
1701072040807,0.09144572,-0.0147509573999999,0.0680891643999999
1701072040823,0.099184686,-0.0151472026,0.0760374153999999
1701072040839,0.106889665,-0.0148336437,0.0840974993999999
1701072040855,0.114405996,-0.0143096494999999,0.0920335863999999
1701072040870,0.121781429,-0.0142068393,0.0997878623999999
1701072040885,0.12856209,-0.0146561782,0.1071241343999999
1701072040900,0.135189605,-0.0156878702,0.1142593823999999
1701072040915,0.141741233,-0.0166370317,0.1212032373999999
1701072040930,0.14821238,-0.0172485143999999,0.1280697823999999
1701072040945,0.154520426,-0.0174882910999999,0.1347750133999999
1701072040959,0.160801196,-0.0174642249099999,0.1412141943999999
1701072040974,0.166941135,-0.0171231536099999,0.1475259563999999
1701072040988,0.17295948,-0.01636012591,0.1537888833999999
1701072041002,0.17863156,-0.01544002311,0.1601089383999999
1701072041017,0.183759486,-0.01455699621,0.1665743743999999
1701072041030,0.188177766,-0.0147404589099999,0.1732523673999999
1701072041045,0.191599436,-0.01577806491,0.1799894663999999
1701072041058,0.194713207,-0.01741975391,0.1869522103999999
1701072041072,0.197721315,-0.01925832191,0.1944185573999999
1701072041086,0.200469128,-0.02079811491,0.2024865823999999
1701072041100,0.202927897,-0.02199701991,0.2110219843999999
1701072041114,0.20526131,-0.02320715591,0.2199390333999999
1701072041128,0.207256033,-0.02429929791,0.2289466863999999
1701072041142,0.209108181,-0.02551089691,0.2379143823999999
1701072041156,0.21081782,-0.02736727591,0.2466241163999999
1701072041170,0.212328489,-0.02972181091,0.2547403443999999
1701072041184,0.213370458,-0.03223432991,0.2623946993999999
1701072041197,0.214619141,-0.03456181391,0.2699605593999999
1701072041211,0.216047847,-0.03637136991,0.2777700013999999
1701072041224,0.217968937,-0.0373946719099999,0.2855255503999999
1701072041239,0.220322356,-0.0381073524099999,0.2930087973999999
1701072041254,0.222583519,-0.03858886641,0.2998024213999999
1701072041266,0.224855557,-0.03897792981,0.3058369233999999
1701072041281,0.226784599,-0.03937229311,0.3108324633999999
1701072041295,0.227995016,-0.03988591101,0.3148361233999999
1701072041308,0.2286880225999999,-0.03980380526,0.3180611884
1701072041322,0.2292255202999999,-0.03875132326,0.3206137833999999
1701072041337,0.2298132936,-0.03671139026,0.3225180424
1701072041351,0.2307382959,-0.03388389626,0.3238866164
1701072041364,0.2318697099,-0.0308642802599999,0.3247066414
1701072041378,0.2333383939,-0.0279359252599999,0.3248965916
1701072041392,0.2350370259,-0.0251520542599999,0.3247078304
1701072041407,0.2370965029,-0.0228292282599999,0.3242318411
1701072041421,0.2395935339,-0.0203757212599999,0.3235678485
1701072041435,0.2421173559,-0.0178266692599999,0.322714739
1701072041449,0.2448616489,-0.0154285322599999,0.3219437362
1701072041462,0.2473538919,-0.0128168682599999,0.3210941045
1701072041476,0.2498695509,-0.0101129162599999,0.3204808876
1701072041490,0.2523555539,-0.0068580922599999,0.3200427552
1701072041504,0.2552545599,-0.0031064152599999,0.3199299529
1701072041518,0.2584017339,0.00075427374,0.31984682741
1701072041532,0.2614779559,0.00412531974,0.31963516641
1701072041546,0.2642827009,0.00712562174,0.31933929341
1701072041560,0.2671349929,0.00992888674,0.31896061481
1701072041573,0.2700176838999999,0.01281763674,0.31851526851
1701072041587,0.2729050938999999,0.01560587074,0.31807806621
1701072041601,0.2757359939,0.01804090474,0.3176532670100001
1701072041615,0.2785907708999999,0.02011602674,0.3174185627100001
1701072041629,0.2817741938999999,0.02240518074,0.3175395140100001
1701072041643,0.2852377928999999,0.02448671574,0.3181437717100001
1701072041657,0.2891870378999999,0.02595061874,0.3189904045100001
1701072041671,0.2931680558999999,0.02684864814,0.3200209935100001
1701072041685,0.2976405838999999,0.026844433731,0.3213036925100001
1701072041699,0.3025113088999999,0.025928749031,0.3227803285100001
1701072041713,0.3078267658999999,0.024489802031,0.3243635515100001
1701072041726,0.3139016448999999,0.022962753031,0.3261076485100001
1701072041740,0.3201471808999999,0.021782417031,0.3280084695100001
1701072041755,0.3264051458999999,0.021212093331,0.3301816975100001
1701072041768,0.3329681898999999,0.021487009131,0.3327624635100001
1701072041782,0.3394549798999999,0.022034137331,0.3355488375100001
1701072041796,0.3460198178999999,0.022252269131,0.3384839965100001
1701072041810,0.3526904359,0.021701054431,0.3415136195100001
1701072041824,0.3591509529,0.021083304531,0.3446044215100001
1701072041838,0.3655693659,0.020878383631,0.3478579205100001
1701072041851,0.3714054359,0.020569437531,0.3511299085100001
1701072041865,0.3765189449,0.020533448141,0.3544845705100001
1701072041879,0.3805385559,0.020770122341,0.3578404365100001
1701072041893,0.3837735619,0.020996124241,0.3614528945100001
1701072041907,0.3861558749,0.021609241441,0.3651261365100001
1701072041922,0.3878309209,0.022822816441,0.3688792735100001
1701072041935,0.388572039,0.025098038441,0.3724543455100002
1701072041942,0.3890650728,0.027974806441,0.3759605545100001
1701072041956,0.3888027649,0.031263386441,0.3793177175100001
1701072041969,0.3882912632,0.034756609441,0.3824685945100001
1701072041984,0.3876122424000001,0.037766894441,0.3856804985100001
1701072041997,0.3869681271,0.040648172441,0.3889535705100001
1701072042011,0.3865194287,0.043194566441,0.3926985645100001
1701072042026,0.3862848658,0.045864324441,0.3971602215100001
1701072042039,0.38631133504,0.048595895441,0.4021873325100001
1701072042053,0.38668696364,0.051257588441,0.4075431275100001
1701072042068,0.38708843134,0.053165060441,0.4131394065100001
1701072042081,0.38768445714,0.054042455141,0.4188040145100001
1701072042095,0.38811280244,0.053961092541,0.4243560335100001
1701072042108,0.38833192944,0.053357890941,0.4298622775100001
1701072042123,0.38830439535,0.052396583241,0.4354554395100001
1701072042136,0.3877772802500001,0.050723477241,0.4412843065100001
1701072042151,0.38656038225,0.048663176241,0.4474540905100001
1701072042164,0.38485071525,0.045910080241,0.4540150725100001
1701072042178,0.38275104225,0.042753696241,0.4609784035100001
1701072042192,0.38060353425,0.038298770241,0.4682549045100001
1701072042207,0.37850049425,0.033269063241,0.4757533845100001
1701072042220,0.3767598192499999,0.027295269241,0.4834912665100001
1701072042234,0.37550235925,0.020377501241,0.49178666551
1701072042248,0.37524579295,0.012707790241,0.50072936951
1701072042262,0.37602593115,0.004216818241,0.51061980851
1701072042276,0.3782067391499999,-0.0051721307589999,0.52144367851
1701072042290,0.38180682515,-0.0149564637589999,0.53296441851
1701072042304,0.3868501911499999,-0.0250240237589999,0.54527380851
1701072042318,0.3932020221499999,-0.0352693537589999,0.55827190851
1701072042332,0.4008483391499999,-0.0464307037589999,0.57168183851
1701072042345,0.4099024471499999,-0.0586943337589999,0.58535256851
1701072042360,0.42021638715,-0.0714215837589999,0.5993561185099999
1701072042374,0.43097309715,-0.0840524237589999,0.61361467851
1701072042388,0.44236701715,-0.0969397937589999,0.62809495851
1701072042402,0.45469494715,-0.1107873837589999,0.64291600851
1701072042415,0.46808397715,-0.1264089537589999,0.65823863851
1701072042429,0.48268538715,-0.1441451137589999,0.67428826851
1701072042443,0.49859187715,-0.1649332037589999,0.69112892851
1701072042458,0.5162245371499999,-0.1893088537589999,0.70842086851
1701072042471,0.5355488371499999,-0.2181504737589999,0.72599454851
1701072042485,0.5568346971499999,-0.2520916137589999,0.74379559851
1701072042499,0.5804699671499999,-0.291733283759,0.76140618851
1701072042513,0.6064924571499999,-0.3368986437589999,0.77883701851
1701072042527,0.6350250371499999,-0.3867097437589999,0.79656873851
1701072042541,0.6655829571499999,-0.438031163759,0.81477858851
1701072042555,0.6977215071499999,-0.4877797637589999,0.83389042851
1701072042569,0.7312910671499999,-0.5347296737589999,0.8536434385099999
1701072042583,0.7656293271499999,-0.5803016337589999,0.8737106985099999
1701072042597,0.8002334971499999,-0.6261777537589999,0.8930066985099999
1701072042611,0.8345530471499999,-0.6721162737589998,0.91118828851
1701072042626,0.8678054471499999,-0.7171988837589999,0.92828865851
1701072042639,0.8998069471499999,-0.7613366937589998,0.9443506685099998
1701072042653,0.93090168715,-0.8049050037589998,0.9599091185099998
1701072042666,0.96120418715,-0.8483714737589998,0.97486740851
1701072042680,0.98999107715,-0.8918473537589998,0.98888409851
1701072042695,1.01737645715,-0.933820993759,1.00167978851
1701072042708,1.04317633715,-0.973707843759,1.01310746851
1701072042723,1.06713841715,-1.010401513759,1.02279498951
1701072042736,1.08927371715,-1.0442370837589998,1.03081217351
1701072042750,1.10958464715,-1.0750300937589998,1.03730565551
1701072042764,1.1279082271499998,-1.1020568337589998,1.04171074951
1701072042778,1.1448393071499998,-1.1252543037589997,1.04392084751
1701072042793,1.1598360771499998,-1.1446471837589998,1.04362402431
1701072042806,1.17278891715,-1.1606704337589997,1.04103449331
1701072042820,1.18362576715,-1.1739656837589998,1.03630571431
1701072042834,1.19245997415,-1.184335703759,1.03009257031
1701072042848,1.19925531615,-1.192422844759,1.02272890731
1701072042862,1.20371935715,-1.198977971759,1.01445064931
1701072042876,1.20638026115,-1.2046286797589998,1.00526673531
1701072042890,1.20683762295,-1.2101455847589997,0.99507418531
1701072042904,1.20456777395,-1.2154317367589995,0.98379388531
1701072042918,1.19959219195,-1.2199003157589998,0.97172286531
1701072042932,1.19201114395,-1.223367830759,0.95914762531
1701072042946,1.1824112529500002,-1.226216169759,0.94638831531
1701072042959,1.1710857929500005,-1.228963931759,0.93376775531
1701072042973,1.1585496529500003,-1.232081646759,0.92140174531
1701072042987,1.1447124429500004,-1.2360665477589998,0.90962964531
1701072043001,1.1301112629500003,-1.241557004759,0.8985127953100001
1701072043015,1.1146641029500004,-1.248538629759,0.88803458531
1701072043029,1.0984962929500004,-1.256053355759,0.87833213931
1701072043043,1.0815464929500005,-1.264469283759,0.86956516031
1701072043057,1.0641709529500003,-1.2732516067589998,0.8617102893099999
1701072043071,1.0462616429500005,-1.282762797759,0.8548369443099999
1701072043085,1.0275668929500004,-1.292493397759,0.8489493303099999
1701072043099,1.0084961529500005,-1.302327877759,0.8441771253099999
1701072043113,0.9890628329500004,-1.311561685759,0.8406112113099999
1701072043128,0.9691250129500004,-1.319607310759,0.83840399131
1701072043141,0.9486780829500004,-1.326762000759,0.83718807731
1701072043154,0.9278947929500004,-1.333549818759,0.83709768174
1701072043169,0.9068141929500004,-1.340476309759,0.83785039244
1701072043184,0.8856624329500004,-1.348263684759,0.8396638924400001
1701072043196,0.8643821529500003,-1.356755146759,0.84251920944
1701072043210,0.8433034929500003,-1.366039140759,0.84654958744
1701072043224,0.8224131129500003,-1.376221200759,0.85170848844
1701072043238,0.8019639529500003,-1.387683600759,0.85817408444
1701072043252,0.7819364629500003,-1.4001165007590002,0.86596909644
1701072043266,0.7622071429500002,-1.4127553307590002,0.87522976544
1701072043280,0.7433139229500002,-1.4253552507590002,0.8860979354399999
1701072043294,0.7247206029500002,-1.4381103307590002,0.8982380054399999
1701072043308,0.7067431629500002,-1.4511261907590003,0.91114131544
1701072043322,0.6896114129500002,-1.4649888307590002,0.92430254544
1701072043336,0.6731809629500002,-1.4792662107590002,0.93758784544
1701072043350,0.6572100829500002,-1.4936819207590002,0.95099883544
1701072043363,0.6422601229500001,-1.5081707207590005,0.96489613544
1701072043378,0.6280020229500001,-1.5232458707590002,0.97918057544
1701072043393,0.6147106329500001,-1.5391363807590002,0.99380249544
1701072043406,0.6026088729500001,-1.5566496007590005,1.0086182954399998
1701072043420,0.5914566429500001,-1.5760147207590005,1.02347307544
1701072043433,0.5812530129500001,-1.5982484407590003,1.03818383544
1701072043447,0.5721204819500001,-1.6235333107590002,1.0526935254399998
1701072043461,0.5639793129500001,-1.6508234907590005,1.0672637554399995
1701072043475,0.5570551899500001,-1.6786260207590002,1.0821369754399996
1701072043489,0.5518144419500002,-1.7043382207590003,1.0974831754399996
1701072043504,0.5483466759500002,-1.7276506707590005,1.1129643454399996
1701072043517,0.5468629849500002,-1.7493889207590003,1.1279114954399996
1701072043531,0.5472329591500001,-1.7711634407590002,1.1415907854399996
1701072043544,0.5496775761500001,-1.7932182507590002,1.1537407754399995
1701072043559,0.5545411081500001,-1.8152588707590005,1.1646157254399996
1701072043572,0.5616158841500001,-1.8370381507590003,1.1742107144399996
1701072043587,0.57082410915,-1.8582888307590004,1.1827343964399997
1701072043600,0.58242749915,-1.8795545207590003,1.1904064094399998
1701072043614,0.5963989791500001,-1.9007079007590004,1.19756678044
1701072043628,0.61283291915,-1.9219949807590004,1.20403465644
1701072043642,0.63193631915,-1.9438679207590004,1.20945478744
1701072043656,0.65411523915,-1.9664596807590005,1.2132540374399998
1701072043670,0.6798563091500001,-1.9895385607590004,1.21506766544
1701072043684,0.70848492915,-2.0129449607590004,1.21516872324
1701072043697,0.73928826915,-2.0365102707590004,1.21390761224
1701072043711,0.77171897915,-2.060424070759,1.2112681452399998
1701072043725,0.80519795915,-2.084665090759,1.20713920824
1701072043740,0.8394908291500001,-2.108429760759,1.20177507124
1701072043753,0.87400520915,-2.130047680759,1.19542892024
1701072043767,0.90813189915,-2.148941220759,1.18792570824
1701072043781,0.94162951915,-2.1650641107590003,1.1792734722399998
1701072043795,0.97376845915,-2.1783452507590004,1.1691809722399995
1701072043809,1.00480325915,-2.1890540307590003,1.1577395522399998
1701072043823,1.03415913915,-2.1971393027590005,1.1447869922399998
1701072043837,1.06143674915,-2.2022609157590005,1.1305757422399998
1701072043851,1.08597405915,-2.2045536937590007,1.1157285522399998
1701072043865,1.10816389915,-2.2044502128590007,1.10031727224
1701072043879,1.12851124915,-2.2024652788590005,1.08464565224
1701072043892,1.14734438915,-2.1987594848590004,1.06905865224
1701072043907,1.16494366915,-2.1942038168590003,1.0534780222399998
1701072043921,1.18082810915,-2.1891384468590003,1.0376755622399998
1701072043935,1.19485633915,-2.1836667868590003,1.0218535022399995
1701072043948,1.20718449915,-2.1774002528590004,1.0060868922399997
1701072043962,1.21839684915,-2.1709010048590005,0.9903974022399996
1701072043977,1.22859194915,-2.165147268859001,0.9745311122399998
1701072043991,1.23763272815,-2.1605704758590005,0.9583967422399998
1701072044003,1.2454382031500002,-2.1570147698590003,0.9423059922399998
1701072044017,1.2521963321500005,-2.1545139178590005,0.9266613222399998
1701072044031,1.2582997581500002,-2.1529524458590004,0.9119722522399998
1701072044045,1.2640180601500002,-2.1515075168590005,0.8985803722399998
1701072044059,1.2694056231500002,-2.1497153148590007,0.8861341722399998
1701072044073,1.2751574391500002,-2.147486029859001,0.8743283922399998
1701072044088,1.2810233301500005,-2.1452683718590007,0.8624761422399998
1701072044101,1.2869460201500005,-2.142587056859001,0.8503984622399998
1701072044115,1.2927015511500002,-2.1396558438590008,0.8379769722399998
1701072044129,1.2976972651500005,-2.136085027859001,0.8254229522399997
1701072044143,1.3022610671500003,-2.131977531859001,0.8128911722399997
1701072044157,1.3060911751500004,-2.127659908859001,0.8004906722399997
1701072044171,1.3095044851500004,-2.122879235859001,0.7884702822399997
1701072044185,1.3123185821500003,-2.117633318859001,0.7765735422399997
1701072044199,1.3143832851500004,-2.111676086859001,0.7647911922399997
1701072044213,1.3158082611500004,-2.105736530859001,0.7528636922399997
1701072044227,1.3168460831500004,-2.100597667859001,0.7408684022399997
1701072044240,1.3173707213500003,-2.096220071859001,0.7289600322399997
1701072044255,1.3176631065500004,-2.092587315859001,0.7172027622399997
1701072044268,1.3181022034500005,-2.0905429178590014,0.7056480722399997
1701072044282,1.3188728291500005,-2.0899967078590014,0.6946021322399997
1701072044296,1.3203363491500004,-2.0914192508590013,0.6844582222399996
1701072044310,1.3224477391500005,-2.095133420859001,0.6752314192399996
1701072044324,1.3250164341500004,-2.1012111218590013,0.6666437982399996
1701072044337,1.3277714041500004,-2.1095724778590013,0.6585938732399996
1701072044352,1.3312220791500005,-2.120190787859001,0.6516978912399997
1701072044365,1.3351118771500006,-2.132096167859001,0.6461598602399996
1701072044379,1.3395099711500005,-2.145044817859001,0.6422115122399996
1701072044393,1.3439506751500006,-2.158586677859001,0.6395070652399996
1701072044407,1.3483115661500005,-2.172756077859001,0.6375205322399996
1701072044421,1.3530213761500005,-2.1873611278590013,0.6361862982399996
1701072044435,1.3576442481500006,-2.2017922678590014,0.6354029929399996
1701072044449,1.3621467261500009,-2.2158171578590014,0.6351259000399996
1701072044463,1.3668114501500006,-2.2290106278590014,0.6356269142399996
1701072044477,1.3714285891500009,-2.2417501578590016,0.6370249042399996
1701072044491,1.3760998181500006,-2.2547812278590014,0.6392368372399996
1701072044505,1.3813854511500006,-2.268722647859001,0.6424440432399996
1701072044519,1.3872118991500006,-2.284255637859001,0.6465945032399996
1701072044532,1.3937309761500007,-2.3019862278590018,0.6516853992399996
1701072044546,1.4011113071500008,-2.323423817859002,0.6575342752399995
1701072044560,1.4098537341500008,-2.3498535478590017,0.6640681402399995
1701072044574,1.4200635641500008,-2.382742127859001,0.6707692072399994
1701072044588,1.4314475641500009,-2.423448657859001,0.6769513912399995
1701072044602,1.4438223141500008,-2.4715936878590017,0.6823808712399995
1701072044616,1.4569654941500008,-2.526415617859002,0.6874755872399995
1701072044630,1.4704071741500009,-2.585993337859002,0.6935911922399994
1701072044643,1.4835254741500006,-2.647022827859002,0.7016348242399995
1701072044658,1.4960968141500006,-2.705680957859002,0.7116776842399994
1701072044672,1.5077851341500006,-2.759081407859002,0.7230979742399994
1701072044687,1.5180726641500006,-2.8057558578590016,0.7351778842399994
1701072044699,1.5267247981500007,-2.8470684378590017,0.7466742242399994
1701072044712,1.5332442721500008,-2.8836931378590016,0.7567105542399994
1701072044727,1.5375438371500008,-2.9163765678590017,0.7650957562399995
1701072044740,1.5390945531500009,-2.9452730978590016,0.7715827292399995
1701072044755,1.5377213001500007,-2.969822027859001,0.7760169682399994
1701072044770,1.5331839681500008,-2.9891973078590017,0.7784675932399995
1701072044783,1.5259554121500007,-3.003280317859001,0.7789777343399995
1701072044796,1.5162520181500008,-3.0123943218590017,0.7777481773399995
1701072044810,1.5048944081500009,-3.017290002859001,0.7749356683399995
1701072044824,1.4925319681500009,-3.0186635468590013,0.7706256183399995
1701072044838,1.4793071581500008,-3.0170397838590013,0.7651313083399995
1701072044852,1.4652879781500008,-3.0132056858590013,0.7584186143399996
1701072044865,1.4508637181500008,-3.0081988208590014,0.7505257583399996
1701072044879,1.436146288150001,-3.002079732859001,0.7418341083399995
1701072044894,1.421836128150001,-2.995813056859001,0.7323498913399995
1701072044907,1.4079073081500009,-2.990630408859001,0.7217934513399995
1701072044922,1.394620978150001,-2.9866311838590014,0.7098989513399995
1701072044936,1.382069818150001,-2.984038003859001,0.6962553213399995
1701072044949,1.370624438150001,-2.9829670548590017,0.6808746713399995
1701072044963,1.360153878150001,-2.983175751259002,0.6636156213399994
1701072044977,1.3509858771500012,-2.984054648359002,0.6444995813399994
1701072044991,1.3428935971500011,-2.984575087559002,0.6237418813399994
1701072045005,1.3358529321500012,-2.9848183416590017,0.6010594913399994
1701072045019,1.3295415481500013,-2.984020028559002,0.5763259613399994
1701072045033,1.3241697371500012,-2.981900509559002,0.5496698913399993
1701072045047,1.3195769181500012,-2.978385623559002,0.5208782013399993
1701072045061,1.3158007681500012,-2.972846013559002,0.4907110013399993
1701072045075,1.3126267721500011,-2.964810230559002,0.4594738213399993
1701072045089,1.3099735951500011,-2.952850230559002,0.4279279413399993
1701072045103,1.3076224671500014,-2.9361825905590018,0.3967170013399993
1701072045117,1.3056165511500013,-2.915215830559002,0.3666715913399993
1701072045130,1.3032440271500012,-2.889346600559002,0.3381816313399993
1701072045144,1.3000828291500013,-2.859230090559002,0.3115281513399993
1701072045158,1.2952841451500012,-2.8252134105590017,0.2864568613399993
1701072045172,1.2893184401500013,-2.7881226605590017,0.2631573013399993
1701072045187,1.2823165971500012,-2.747669890559002,0.2412661413399993
1701072045200,1.2748906641500013,-2.704416950559002,0.2202781713399993
1701072045213,1.2664525481500013,-2.6585732405590017,0.1999450113399993
1701072045227,1.2565657741500014,-2.6106945905590018,0.1799711113399993
1701072045243,1.2456285041500013,-2.5621493405590017,0.1603424513399993
1701072045256,1.233789504150001,-2.513959830559002,0.1409500613399993
1701072045270,1.2215396441500013,-2.467748010559002,0.1220949013399993
1701072045284,1.2086970041500014,-2.422387120559002,0.1041960413399993
1701072045296,1.1956797141500013,-2.375595940559002,0.0874892613399993
1701072045311,1.1824940841500011,-2.327744530559002,0.0718793513399993
1701072045325,1.1693142941500014,-2.2804565705590023,0.0568210813399993
1701072045338,1.1562867841500015,-2.2359946905590022,0.0416273813399993
1701072045353,1.1437865241500016,-2.1949363805590023,0.0264537513399993
1701072045367,1.1323667341500017,-2.1567720505590025,0.0117949513399993
1701072045380,1.1225688821500015,-2.1204262505590026,-0.0020379386600006
1701072045395,1.1141660071500017,-2.0853813905590024,-0.0146203186600006
1701072045408,1.1071999531500016,-2.0510538505590024,-0.0263247986600006
1701072045423,1.1020989011500015,-2.0163239705590024,-0.0372893986600006
1701072045436,1.0990404571500014,-1.9816469105590024,-0.0477362886600006
1701072045449,1.0979262041500015,-1.9481279505590023,-0.0579909886600006
1701072045463,1.0990451061500015,-1.9169033205590025,-0.0681941986600006
1701072045478,1.1022875281500015,-1.8880901705590023,-0.0783815586600006
1701072045491,1.1076992961500016,-1.8605427505590024,-0.0884533886600006
1701072045506,1.1150677151500017,-1.832784000559002,-0.0985452386600006
1701072045520,1.1245254221500016,-1.8046138705590025,-0.1085692186600006
1701072045533,1.1357484821500017,-1.7774677705590023,-0.1188016986600006
1701072045547,1.1486477221500018,-1.7521340805590022,-0.1291083286600006
1701072045560,1.1626138121500018,-1.7290243105590022,-0.1392197586600006
1701072045575,1.1775337421500018,-1.707482990559002,-0.1483318716600006
1701072045589,1.1937406821500018,-1.687029960559002,-0.1557666936600006
1701072045603,1.2107200321500018,-1.668218380559002,-0.1616608986600006
1701072045617,1.228340272150002,-1.652197700559002,-0.1664088346600006
1701072045631,1.246469522150002,-1.638961640559002,-0.1702718686600006
1701072045644,1.264942532150002,-1.626522110559002,-0.1733941616600006
1701072045659,1.283685482150002,-1.613124930559002,-0.1760636256600006
1701072045673,1.3022658321500018,-1.5991865105590022,-0.1791581156600006
1701072045687,1.3203305921500017,-1.5854917605590022,-0.1834014376600006
1701072045700,1.3375914121500017,-1.5720107205590022,-0.1890174456600006
1701072045715,1.3536814421500016,-1.558064480559002,-0.1960457636600006
1701072045729,1.3688820821500016,-1.543078110559002,-0.2040660706600006
1701072045742,1.3827454721500017,-1.5265431105590022,-0.2127042786600007
1701072045756,1.3948962521500017,-1.5082006505590022,-0.2216103876600006
1701072045769,1.4053414421500017,-1.4880283405590022,-0.2302761616600006
1701072045785,1.4140905881500017,-1.4665501005590025,-0.2384967116600006
1701072045798,1.4210395231500017,-1.4453946005590022,-0.2463016416600006
1701072045811,1.4263878821500018,-1.425380830559002,-0.2537849096600006
1701072045825,1.429809279150002,-1.407736410559002,-0.2615289226600006
1701072045840,1.430996048150002,-1.392418560559002,-0.2696197296600006
1701072045854,1.430513658450002,-1.379652780559002,-0.2784991496600006
1701072045867,1.428312817450002,-1.369068400559002,-0.2882963056600006
1701072045880,1.424544104450002,-1.360289965559002,-0.2988378356600006
1701072045895,1.419845861450002,-1.352742781559002,-0.3099183456600006
1701072045908,1.414233490450002,-1.346044007559002,-0.3211126356600006
1701072045922,1.408055144450002,-1.339399102559002,-0.3321703656600006
1701072045936,1.401472264450002,-1.333097105559002,-0.3428438556600006
1701072045952,1.394964981450002,-1.326209637559002,-0.3530497956600006
1701072045964,1.388382432450002,-1.319624545559002,-0.3632069856600006
1701072045978,1.381778688450002,-1.313274322559002,-0.3736933956600006
1701072045993,1.375660144450002,-1.307841099559002,-0.3851344756600006
1701072046006,1.369871970450002,-1.303445964559002,-0.3977909456600006
1701072046020,1.364318420450002,-1.300251828559002,-0.4118191356600006
1701072046034,1.358758115450002,-1.297454275559002,-0.4270861856600006
1701072046048,1.3534910454500022,-1.294939923559002,-0.4435219656600006
1701072046062,1.3484068614500022,-1.292008568559002,-0.4607963756600006
1701072046075,1.3438378194500022,-1.288729029559002,-0.4785368456600006
1701072046090,1.3397547704500024,-1.285423910559002,-0.4968659456600006
1701072046104,1.3364703924500023,-1.282723819559002,-0.5159508656600006
1701072046117,1.3336799454500023,-1.280486112559002,-0.5358395556600006
1701072046130,1.3311517094500025,-1.2782040615590022,-0.5564928356600006
1701072046144,1.3291336684500024,-1.2756157265590022,-0.5778068256600006
1701072046158,1.3272926984500024,-1.2720826165590022,-0.5996313356600006
1701072046172,1.3256550464500023,-1.2673981075590022,-0.6219322756600006
1701072046188,1.3241356534500024,-1.2613973655590025,-0.6445580356600007
1701072046200,1.3231038504500023,-1.2550383065590025,-0.6676008456600007
1701072046214,1.3222084610500024,-1.2488796015590022,-0.6909038156600007
1701072046228,1.3219262605500024,-1.2428781315590025,-0.7145500756600007
1701072046242,1.3224437382500025,-1.2373120535590023,-0.7386069156600007
1701072046257,1.3234313597500025,-1.2323286265590023,-0.7631258556600007
1701072046270,1.3251842877500024,-1.2279284795590024,-0.7880854456600007
1701072046284,1.3281212817500023,-1.2240091905590025,-0.8132662356600007
1701072046298,1.3318575847500025,-1.2204855465590023,-0.8387122956600007
1701072046312,1.3365555747500022,-1.2174403235590026,-0.8644314256600008
1701072046326,1.3425643607500022,-1.2149164145590026,-0.8905488456600007
1701072046339,1.349359997750002,-1.212647647559003,-0.9169441356600008
1701072046354,1.3572384507500022,-1.2106024085590026,-0.9435261756600006
1701072046367,1.366243048750002,-1.2088484405590023,-0.9703416256600006
1701072046381,1.376182352750002,-1.2067269415590025,-0.9972941256600006
1701072046395,1.386955092750002,-1.2040554575590026,-1.0244337956600007
1701072046409,1.398450662750002,-1.2009431565590023,-1.0517015756600008
1701072046424,1.410334972750002,-1.1976586325590026,-1.0792821756600008
1701072046437,1.422638692750002,-1.1941729035590023,-1.106926925660001
1701072046452,1.435368862750002,-1.1903006085590024,-1.134542595660001
1701072046465,1.4482885927500018,-1.1859183575590024,-1.1619233056600011
1701072046478,1.4618372227500018,-1.1813858555590024,-1.1889411856600012
1701072046492,1.4757180427500018,-1.1767838535590025,-1.2154390556600012
1701072046507,1.4895437127500015,-1.1724309895590026,-1.2414663356600013
1701072046520,1.5032191527500018,-1.1682902275590026,-1.2669069556600012
1701072046534,1.5169212127500018,-1.1642521245590025,-1.2915368456600012
1701072046548,1.5301491927500015,-1.1600236085590026,-1.3151146056600012
1701072046562,1.5431435527500017,-1.1555141235590023,-1.3376101056600012
1701072046577,1.5556970727500017,-1.1508078305590026,-1.3589640056600012
1701072046590,1.5679871127500016,-1.1459482845590026,-1.3792455356600013
1701072046603,1.5800492427500017,-1.1415238005590025,-1.398634475660001
1701072046618,1.5919582827500014,-1.1378811285590025,-1.417010065660001
1701072046631,1.6036362827500017,-1.1353275435590025,-1.4343321256600012
1701072046645,1.6148450427500014,-1.1338194805590025,-1.4505566856600012
1701072046659,1.6256892827500014,-1.1329905518590024,-1.465345725660001
1701072046673,1.6360029927500013,-1.1318793648590024,-1.478477825660001
1701072046688,1.6456393097500013,-1.1306639648590024,-1.489783665660001
1701072046701,1.6545340827500012,-1.1289336948590023,-1.499509077660001
1701072046714,1.6626133637500011,-1.1267923678590026,-1.5078387976600012
1701072046728,1.670029273750001,-1.1249626858590025,-1.5151124566600012
1701072046743,1.6771040237500012,-1.1236161988590023,-1.5213570666600011
1701072046756,1.6838068647500013,-1.1224171858590026,-1.526385057660001
1701072046771,1.6895298707500013,-1.1211842358590027,-1.5302139256600011
1701072046785,1.6942478467500013,-1.119383435859003,-1.533087891660001
1701072046798,1.6979750927500012,-1.1170731898590027,-1.535002385660001
1701072046811,1.7006265797500013,-1.1146173618590027,-1.536215579660001
1701072046828,1.7020206817500012,-1.1125562198590029,-1.536772068460001
1701072046839,1.7018869325500012,-1.1110923388590026,-1.536582149260001
1701072046854,1.7005343245500013,-1.1103766333590026,-1.535426132260001
1701072046867,1.6978710635500014,-1.1099973536590029,-1.532834274260001
1701072046881,1.6937801475500014,-1.1098419402590027,-1.528828060260001
1701072046896,1.6884063435500014,-1.1093078928590028,-1.523283448260001
1701072046908,1.6817442255500017,-1.1086656996590027,-1.516186248260001
1701072046922,1.6737825155500017,-1.1084519735590028,-1.507561925260001
1701072046936,1.6650484805500014,-1.1090291487590027,-1.497457865260001
1701072046952,1.6554042825500015,-1.1101112817590026,-1.485685885260001
1701072046963,1.6449173125500014,-1.1120740957590027,-1.472411205260001
1701072046977,1.6337332225500014,-1.1143994497590026,-1.457359185260001
1701072046992,1.6223572825500014,-1.1163127447590029,-1.440465105260001
1701072047005,1.6107288625500014,-1.1176428727590026,-1.421703805260001
1701072047019,1.5988255925500017,-1.1184224781590026,-1.401237215260001
1701072047035,1.5865534725500017,-1.1189940567590029,-1.379364165260001
1701072047049,1.5743596225500014,-1.1198137369590029,-1.356195615260001
1701072047062,1.5620323625500014,-1.1212997449590028,-1.331811045260001
1701072047075,1.5497753425500014,-1.1231748609590029,-1.305943635260001
1701072047089,1.5377753425500014,-1.1244577409590026,-1.2785974452600009
1701072047103,1.526019992550001,-1.1252310137590027,-1.2498329752600008
1701072047117,1.5143594225500012,-1.1260364540590029,-1.2198707252600007
1701072047131,1.5029265625500012,-1.1267321495590026,-1.1886102952600008
1701072047144,1.4916574325500012,-1.1273417155590026,-1.1560984652600008
1701072047158,1.480533972550001,-1.1275225113590026,-1.1223306352600009
1701072047172,1.469113132550001,-1.1273722866590026,-1.087311495260001
1701072047187,1.457504002550001,-1.1268462200590026,-1.0510255352600009
1701072047200,1.445813932550001,-1.1258091820590026,-1.013374685260001
1701072047214,1.433756992550001,-1.1246688860590026,-0.974325715260001
1701072047228,1.421341622550001,-1.1233045700590023,-0.934014185260001
1701072047242,1.4083292825500011,-1.1216246790590023,-0.8924939952600011
1701072047256,1.3947835525500012,-1.1190003290590025,-0.8495851552600011
1701072047270,1.3807589525500013,-1.1156185510590024,-0.8052362452600011
1701072047283,1.3661577925500012,-1.1111196900590024,-0.7592174352600012
1701072047297,1.351012492550001,-1.1062310270590023,-0.7115128252600011
1701072047311,1.3349763425500014,-1.1011941510590024,-0.6620046952600012
1701072047325,1.3182938725500015,-1.0959067650590024,-0.6104914352600012
1701072047339,1.3007104525500015,-1.0909628910590023,-0.5569227852600012
1701072047353,1.2820722825500015,-1.0864305050590024,-0.5010556452600011
1701072047367,1.2626580625500017,-1.0822794180590023,-0.4429688852600011
1701072047380,1.2422795325500016,-1.0787680910590025,-0.3825606552600011
1701072047394,1.2210651425500016,-1.0758413400590023,-0.3198652652600011
1701072047408,1.1988372625500017,-1.0739031500590024,-0.2546455652600011
1701072047422,1.1757414025500017,-1.0725786970590023,-0.1866816652600011
1701072047436,1.1522285225500015,-1.0717833198590023,-0.1155161052600011
1701072047450,1.1282287925500016,-1.0716497228590025,-0.041181855260001
1701072047464,1.1036584225500017,-1.0720460809590022,0.0363245647399989
1701072047477,1.0784601125500015,-1.0729609336590022,0.1168467247399989
1701072047491,1.0529779125500018,-1.0744909516590022,0.2001510747399989
1701072047506,1.026538742550002,-1.0765770666590022,0.2862551147399989
1701072047520,0.999127082550002,-1.0793175966590025,0.3750139747399989
1701072047534,0.970770472550002,-1.0826957596590023,0.4663847947399989
1701072047547,0.941924532550002,-1.0866022396590025,0.5603174047399989
1701072047561,0.912561032550002,-1.0907500816590023,0.6570655847399989
1701072047575,0.882502332550002,-1.0955539786590025,0.7563993747399989
1701072047589,0.852087852550002,-1.1002655136590025,0.8585528747399989
1701072047603,0.820972432550002,-1.1046390226590024,0.9637358747399988
1701072047617,0.789109602550002,-1.1086570956590025,1.0718767747399989
1701072047631,0.756279792550002,-1.1129507726590022,1.1831215747399988
1701072047644,0.722675372550002,-1.1175881806590022,1.2974850747399989
1701072047658,0.688450412550002,-1.1228087846590022,1.415243474739999
1701072047672,0.6535582225500021,-1.1284230636590022,1.536164374739999
1701072047687,0.6182053125500021,-1.1343023426590022,1.660552874739999
1701072047700,0.5822473525500022,-1.140032754659002,1.788424874739999
1701072047714,0.5459245725500022,-1.145654794659002,1.920257874739999
1701072047728,0.5089797325500022,-1.150711935659002,2.056225174739999
1701072047742,0.4716351325500021,-1.155153959659002,2.196347374739999
1701072047755,0.4335371325500021,-1.159045258659002,2.340821374739999
1701072047771,0.3947602925500021,-1.162342195659002,2.489658174739999
1701072047785,0.3549920125500022,-1.165235487659002,2.642863874739999
1701072047797,0.3144982925500021,-1.168606455659002,2.800466474739999
1701072047811,0.2731428125500021,-1.172237707659002,2.962645974739999
1701072047825,0.2309843425500021,-1.176322075659002,3.1297928747399992
1701072047840,0.1883245025500021,-1.180148574659002,3.30202547474
1701072047854,0.1453125725500021,-1.1844226196590022,3.479171074739999
1701072047866,0.1016558625500021,-1.1899393686590023,3.661038074739999
1701072047880,0.0574377625500021,-1.1971545306590023,3.847713474739999
1701072047894,0.0123605025500021,-1.2064149266590023,4.038665374739999
1701072047908,-0.0334614774499978,-1.2176335666590024,4.233864674739999
1701072047922,-0.0796998574499978,-1.2313641566590023,4.433135774739998
1701072047937,-0.1264896974499978,-1.2483284966590025,4.636198674739998
1701072047950,-0.1739619574499978,-1.2693709466590022,4.842095174739998
1701072047964,-0.2218362974499979,-1.294563966659002,5.049995074739998
1701072047977,-0.2697119874499979,-1.3241288566590022,5.259726174739998
1701072047991,-0.3171530674499979,-1.356790896659002,5.471306274739998
1701072048005,-0.3632306674499979,-1.3904782566590022,5.685069274739998
1701072048019,-0.4076574874499979,-1.423232106659002,5.901459574739998
1701072048033,-0.4495228774499979,-1.453923876659002,6.120664074739998
1701072048047,-0.4883670374499979,-1.481859376659002,6.343321174739998
1701072048061,-0.523319057449998,-1.506657666659002,6.569878774739998
1701072048074,-0.553691027449998,-1.528184086659002,6.801084174739998
1701072048090,-0.577836537449998,-1.546159186659002,7.037955674739998
1701072048103,-0.596093787449998,-1.561737846659002,7.2805207747399985
1701072048116,-0.6077262274499979,-1.5758350866590018,7.528241074739999
1701072048130,-0.6129177994499979,-1.5889785966590018,7.780443274739999
1701072048144,-0.6115326394499979,-1.5994524166590018,8.037528474739998
1701072048158,-0.6040146384499979,-1.6050879036590018,8.299787474739999
1701072048173,-0.5898001684499979,-1.6047708567590018,8.567803074739999
1701072048186,-0.569484708449998,-1.6004135657590015,8.841870574739998
1701072048200,-0.543407448449998,-1.5937190667590018,9.122555874739998
1701072048214,-0.511745078449998,-1.5850689777590017,9.410702674739998
1701072048227,-0.4746075384499979,-1.5755644867590015,9.707095374739998
1701072048242,-0.4323470184499979,-1.5671218417590018,10.011902474739998
1701072048255,-0.3852730584499979,-1.561745746759002,10.325628974739995
1701072048269,-0.3339009884499979,-1.5611577944590018,10.647735574739997
1701072048283,-0.2782702984499979,-1.565790874459002,10.978354074739997
1701072048297,-0.2182845984499979,-1.5761773244590018,11.317650074739996
1701072048311,-0.1541517484499979,-1.591368824459002,11.665144874739996
1701072048325,-0.0857980084499979,-1.6100171544590018,12.020976174739996
1701072048339,-0.0125652184499979,-1.6309601944590018,12.385247074739995
1701072048354,0.064840241550002,-1.6544013144590015,12.757238374739996
1701072048366,0.147040531550002,-1.6798783544590017,13.136578074739994
1701072048380,0.234389931550002,-1.7054175744590017,13.523437774739994
1701072048395,0.327949821550002,-1.7291944444590015,13.918702774739996
1701072048409,0.427606041550002,-1.7505967744590016,14.322689174739995
1701072048422,0.533717641550002,-1.7702152644590017,14.735855274739995
1701072048436,0.646423641550002,-1.7891496044590016,15.158194974739995
1701072048450,0.765961541550002,-1.8084880344590013,15.589850674739996
1701072048464,0.8933370415500019,-1.8288116344590013,16.031287174739994
1701072048477,1.028709041550002,-1.8508196444590013,16.481697274739993
1701072048492,1.172038341550002,-1.8751336044590008,16.940417374739994
1701072048505,1.324547841550002,-1.9024653344590008,17.407690874739995
1701072048519,1.485920741550002,-1.9326127544590013,17.883154474739996
1701072048533,1.655909141550002,-1.966128544459001,18.366876374739995
1701072048547,1.835134941550002,-2.0030674644590016,18.858977474739994
1701072048561,2.023041141550002,-2.0428616144590017,19.358645874739995
1701072048575,2.219810741550002,-2.0858200044590016,19.86548727474
1701072048589,2.4247279415500023,-2.1318982444590016,20.37895127474
1701072048602,2.6374389415500024,-2.1822406744590017,20.89877607473999
1701072048616,2.8572699415500025,-2.2365195844590016,21.42412337473999
1701072048630,3.0834602415500023,-2.2923170844590017,21.95538427473999
1701072048644,3.315795841550002,-2.342022854459002,22.49436787474
1701072048659,3.553999341550002,-2.3747539744590016,23.04369627474
1701072048673,3.798254241550002,-2.3824447084590017,23.60543927474
1701072048688,4.047999541550002,-2.368034548459001,24.179048074739992
1701072048700,4.302090341550002,-2.3408050584590017,24.76231297473999
1701072048714,4.5594557415500025,-2.3043019484590017,25.35390427474
1701072048728,4.8188638415500025,-2.259869778459002,25.95252747473999
1701072048741,5.079216641550002,-2.2108513284590017,26.55530227473999
1701072048756,5.3386562415500025,-2.1639562384590016,27.15777657473999
1701072048769,5.595965841550003,-2.1232708084590017,27.75655587473999
1701072048784,5.849536441550002,-2.087395788459001,28.350140274739992
1701072048798,6.097462041550003,-2.0519872684590017,28.93819407474
1701072048811,6.337907041550003,-2.014789958459002,29.52121717473999
1701072048825,6.569221641550003,-1.976915508459002,30.098805674739992
1701072048839,6.790158141550003,-1.939682388459002,30.67085947473999
1701072048853,6.998916141550003,-1.905677148459002,31.23706547474
1701072048867,7.195823941550003,-1.876061128459002,31.79796807473999
1701072048881,7.380745741550003,-1.8504259184590024,32.35474737473999
1701072048894,7.552885341550003,-1.8266178284590024,32.90796147473999
1701072048908,7.713698141550004,-1.803806748459002,33.45802077473999
1701072048922,7.862589541550004,-1.782742108459002,34.00444017473999
1701072048936,8.000673841550004,-1.760373368459002,34.54807437473999
1701072048952,8.128504841550004,-1.733344668459002,35.08913147473999
1701072048965,8.248088841550004,-1.702417278459002,35.62799487473999
1701072048977,8.359946841550004,-1.668584578459002,36.16429287473999
1701072048991,8.465300741550005,-1.633203158459002,36.69811387474
1701072049005,8.564779541550005,-1.597002538459002,37.23018757473999
1701072049020,8.659259141550004,-1.560962268459002,37.76127357474
1701072049033,8.749526431550004,-1.526013358459002,38.29186377474
1701072049048,8.836333541550005,-1.494003988459002,38.82250677473999
1701072049061,8.919663691550005,-1.465783158459002,39.35411067473999
1701072049075,8.999458581550005,-1.442054898459002,39.88764697474
1701072049089,9.075728631550003,-1.422746868459002,40.42420397474
1701072049103,9.148251241550003,-1.408995378459002,40.96451807474
1701072049117,9.216880451550004,-1.4014400704590022,41.50890417474
1701072049131,9.281986481550003,-1.4010007765590022,42.05775607474
1701072049145,9.344113351550003,-1.4070278015590023,42.61148367474
1701072049159,9.403220681550003,-1.4184506415590024,43.17113087474
1701072049172,9.459691291550005,-1.4333779415590024,43.73702617474
1701072049186,9.513364961550003,-1.4523866215590024,44.30854627474
1701072049201,9.563553221550006,-1.4769974615590025,44.88464747474
1701072049214,9.609640921550003,-1.5070961715590026,45.46551397474
1701072049227,9.651456771550006,-1.5399217215590026,46.05143117474
1701072049241,9.689431741550006,-1.5747816515590027,46.64292627474
1701072049256,9.723441871550008,-1.6120853115590028,47.23989457474
1701072049270,9.753373671550008,-1.6524997815590028,47.84244587474
1701072049283,9.779595081550006,-1.6951090215590028,48.45093647474
1701072049297,9.802105581550006,-1.7395298315590029,49.06555417474
1701072049311,9.821007241550005,-1.7849749515590028,49.68734277474
1701072049325,9.836938581550005,-1.8313940215590028,50.31723527474
1701072049339,9.849690711550004,-1.8791008315590028,50.95627987474
1701072049353,9.858972153550006,-1.9282467315590028,51.60447027474
1701072049367,9.864943138550004,-1.9776896815590028,52.26268767473999
1701072049380,9.867577172550003,-2.0263045215590028,52.93171587473999
1701072049394,9.866629563050004,-2.0735456815590028,53.61086367474
1701072049408,9.862482838050004,-2.1194845915590026,54.29986467473999
1701072049422,9.854723073050003,-2.1621787015590024,54.99888027474
1701072049436,9.843790923050005,-2.200802291559002,55.70670567473999
1701072049450,9.829942993050004,-2.235631411559002,56.42263397474
1701072049464,9.813702473050004,-2.266593901559002,57.14547277473999
1701072049478,9.795051853050005,-2.294114271559002,57.87315307474
1701072049492,9.774344423050003,-2.310834771559002,58.60618767474
1701072049506,9.753070813050003,-2.301099326559002,59.34653747474
1701072049521,9.733116673050004,-2.254624106559002,60.09631337474
1701072049533,9.715001953050004,-2.1811348465590017,60.85470347474
1701072049547,9.699122603050004,-2.093355556559002,61.61875237474
1701072049561,9.685750853050004,-2.002968596559002,62.38658217474
1701072049575,9.675635663050004,-1.9153325865590016,63.15791737474
1701072049589,9.669346896050005,-1.835125906559001,63.92966487474
1701072049603,9.667015132050006,-1.7685293065590018,64.69942357474
1701072049617,9.668305543050003,-1.7193944765590017,65.46435127474
1701072049631,9.673769963050004,-1.6859219865590016,66.22344977473999
1701072049644,9.683877423050005,-1.6567152965590015,66.97860067474
1701072049659,9.699667033050003,-1.6214422865590017,67.73158147474
1701072049672,9.721337013050006,-1.5760643765590014,68.48311727474
1701072049688,9.748601923050003,-1.5250489765590014,69.23265107473999
1701072049700,9.780801883050003,-1.4724039165590015,69.97828227474
1701072049714,9.816869373050006,-1.4181137065590017,70.71965427474
1701072049729,9.856832813050003,-1.3618655565590014,71.45716297474
1701072049742,9.901180333050004,-1.302389706559001,72.19278947474
1701072049756,9.949721413050003,-1.2384090865590014,72.92868397474
1701072049769,10.002551383050005,-1.1719872065590011,73.66641417474
1701072049784,10.059245433050004,-1.1086892265590014,74.40613357474
1701072049797,10.118859733050003,-1.0531662865590017,75.14787447474
1701072049812,10.180779633050005,-1.0085292865590014,75.89146317474
1701072049825,10.244016153050003,-0.9769860665590014,76.63673787473999
1701072049840,10.308404933050005,-0.9586029865590014,77.38431947474
1701072049854,10.374223363050003,-0.9506170305590016,78.13511997474
1701072049866,10.441770203050003,-0.9521600745590016,78.88963107474
1701072049880,10.510706703050005,-0.9644302945590016,79.64751657474
1701072049894,10.581295013050005,-0.9896415545590016,80.40837527474
1701072049908,10.653633163050005,-1.0261632845590014,81.17202067474
1701072049923,10.728332193050004,-1.0703621245590014,81.93886817474
1701072049936,10.806453763050005,-1.1195110345590014,82.70952467474
1701072049951,10.887768563050004,-1.1732743945590014,83.48349377474
1701072049965,10.972661833050005,-1.2328020245590017,84.26064627474
1701072049978,11.060955113050005,-1.2977368345590017,85.04042307473999
1701072049999,11.153380053050006,-1.3668717645590014,85.82349337474
1701072050005,11.250339063050006,-1.4388179345590013,86.61043917474
1701072050018,11.351286263050008,-1.5123790145590013,87.40087227474
1701072050031,11.457378763050007,-1.5874220245590012,88.19567027474
1701072050046,11.568651163050008,-1.6634411745590012,88.99473257474
1701072050060,11.686374063050009,-1.7397499945590011,89.79881397474
1701072050074,11.811019363050008,-1.814982944559001,90.60802497474
1701072050088,11.942939363050009,-1.8883533245590007,91.42252157474
1701072050102,12.082915563050006,-1.9587205045590013,92.24242287474
1701072050117,12.231299663050006,-2.0261047245590014,93.06711887474
1701072050130,12.388897863050008,-2.090264584559001,93.89641417474
1701072050144,12.555072863050007,-2.1514005845590014,94.72938737474
1701072050159,12.729454463050008,-2.208811434559001,95.56545697474
1701072050172,12.911802063050008,-2.2612174745590017,96.40343777474
1701072050186,13.100619963050008,-2.3067651945590018,97.24174037474
1701072050200,13.294621263050008,-2.337250914559002,98.08173357474
1701072050213,13.492761263050008,-2.331430245559002,98.92689687474
1701072050228,13.695073463050008,-2.273780515559002,99.78091037474
1701072050241,13.898326463050008,-2.183968145559002,100.64207187473998
1701072050255,14.099740163050008,-2.0825083455590017,101.50632407473998
1701072050269,14.297185763050008,-1.9831310855590016,102.37103467473996
1701072050283,14.488456063050007,-1.8955460555590016,103.23325587473995
1701072050297,14.671128963050007,-1.8271749855590016,104.08874347473996
1701072050311,14.843524963050008,-1.7797216955590016,104.93584387473996
1701072050324,15.005224863050008,-1.7497938755590017,105.77320027473998
1701072050338,15.155462163050007,-1.7263804555590017,106.60297937473996
1701072050352,15.29548786305001,-1.6979921055590017,107.42779067473997
1701072050366,15.42612976305001,-1.6573002155590018,108.24921307473996
1701072050379,15.55037486305001,-1.6058720755590017,109.06772997473998
1701072050394,15.66923626305001,-1.5483836355590015,109.88055867473996
1701072050409,15.78330596305001,-1.4891495155590018,110.68653297473998
1701072050422,15.89423116305001,-1.4249319555590017,111.48569647473998
1701072050436,16.00348066305001,-1.3534934755590016,112.28019017474
1701072050450,16.11121426305001,-1.2755754255590015,113.07132317474
1701072050463,16.216421163050008,-1.1942148955590015,113.86022597474
1701072050477,16.318355363050006,-1.1121968955590016,114.64778177474
1701072050491,16.416530473050006,-1.0335554855590017,115.43437457474
1701072050506,16.510984153050007,-0.9622516555590016,116.22089087474
1701072050520,16.601977213050006,-0.9018221555590016,117.00768627474
1701072050532,16.689834103050007,-0.8566950955590017,117.79585517474
1701072050550,16.774579523050008,-0.8282476555590017,118.58659347474
1701072050561,16.85579869305001,-0.8163902555590017,119.38115827474
1701072050574,16.93407978305001,-0.8200444355590016,120.18084307474
1701072050588,17.00961307305001,-0.8380367255590017,120.98657727474
1701072050602,17.08211202305001,-0.8695706455590017,121.79930007474
1701072050616,17.15087031305001,-0.9145222155590016,122.61834317474
1701072050630,17.21537467305001,-0.9725962155590016,123.44466507474
1701072050644,17.27574930305001,-1.0403476355590016,124.27845027474
1701072050658,17.33220868305001,-1.1154127855590017,125.12038777474
1701072050673,17.38607495305001,-1.1968472455590016,125.97032937474
1701072050687,17.437693003050008,-1.2831263655590015,126.82746447473998
1701072050700,17.486965843050008,-1.3716482955590017,127.69216157473998
1701072050714,17.53377331305001,-1.4607247355590014,128.56385527473998
1701072050727,17.57736131305001,-1.5527840355590017,129.44210537473998
1701072050741,17.61685220305001,-1.6472160355590015,130.32640627473998
1701072050756,17.65283871305001,-1.7407306855590017,131.21660947473998
1701072050770,17.684721003050008,-1.8300756955590007,132.11326157474
1701072050784,17.713175413050006,-1.9148949855590007,133.01624597474
1701072050798,17.737821723050008,-1.9961391755590008,133.92500007474
1701072050810,17.758608293050006,-2.0731601755590017,134.83908877474002
1701072050825,17.775452153050008,-2.1439876855590017,135.75877747474
1701072050839,17.78823544305001,-2.2059946155590016,136.68345827474002
1701072050853,17.79720624005001,-2.2609516655590016,137.61093627474003
1701072050867,17.80263240805001,-2.3110741755590016,138.53814957474003
1701072050880,17.80471049405001,-2.355043295559001,139.46266277474004
1701072050894,17.80418147305001,-2.3834889255590017,140.38468717474004
1701072050908,17.803033786050012,-2.368126445559002,141.30850977474003
1701072050923,17.80485524405001,-2.296367755559002,142.23732747474003
1701072050937,17.81115009105001,-2.1852299555590022,143.17284177474002
1701072050950,17.82233943105001,-2.059102555559002,144.11324637474002
1701072050963,17.83817594105001,-1.9405673555590024,145.05695667474
1701072050977,17.85951878105001,-1.8469879355590024,146.00153537474
1701072050992,17.88693990105001,-1.7838931255590025,146.94427607474
1701072051006,17.92161818105001,-1.7423001755590022,147.88574467474
1701072051020,17.963999471050013,-1.7078700655590022,148.82197237474
1701072051033,18.01460870105001,-1.6722731155590025,149.75297177474
1701072051047,18.07447407105001,-1.6344632355590023,150.67717427474
1701072051061,18.143641681050013,-1.5950972255590024,151.59357797474
1701072051075,18.22000280105001,-1.5515655955590024,152.50193807474
1701072051089,18.301634581050013,-1.4962167455590023,153.40125287474
1701072051104,18.38713865105001,-1.4225391755590024,154.29277017474
1701072051117,18.47593817105001,-1.3331570155590025,155.17740767474
1701072051130,18.56712800105001,-1.2378464155590023,156.05451667474
1701072051145,18.660506691050013,-1.1450261255590026,156.92472847474
1701072051159,18.75681905105001,-1.0618748255590027,157.78912467473998
1701072051172,18.857040351050014,-0.9928263955590028,158.65027617474
1701072051186,18.96125815105001,-0.9403695955590028,159.51028467473998
1701072051200,19.06977925105001,-0.9050027055590026,160.37096057473997
1701072051214,19.18222325105001,-0.8878252855590026,161.23389877473997
1701072051228,19.29862605105001,-0.8867440895590026,162.10043017473998
1701072051242,19.419151451050013,-0.8998281795590026,162.97177977474
1701072051255,19.543667451050013,-0.9268879595590026,163.84782997474
1701072051269,19.67233745105001,-0.9694964395590026,164.72877997474
1701072051283,19.805771151050013,-1.0256383895590029,165.61428457474
1701072051297,19.94388515105001,-1.0923277995590026,166.50412377474
1701072051311,20.086069851050016,-1.1675788795590023,167.39818817474
1701072051325,20.233252451050017,-1.2510031795590026,168.29684947474
1701072051339,20.384852451050016,-1.3408350795590027,169.20004737474
1701072051352,20.54015325105001,-1.435416639559003,170.10789987474
1701072051366,20.69908225105001,-1.5330882395590026,171.02083587474
1701072051380,20.86175055105001,-1.6330939395590027,171.93891957474
1701072051395,21.02811165105001,-1.7358050395590028,172.86138157474
1701072051408,21.197931351050016,-1.8417794395590028,173.78726127474
1701072051423,21.37177445105001,-1.9482538395590028,174.71697697474
1701072051436,21.55061825105001,-2.051779939559003,175.65079717474
1701072051450,21.73492555105001,-2.150824179559003,176.58879837474
1701072051464,21.924944651050016,-2.245740009559003,177.53044927474002
1701072051477,22.12092805105001,-2.337440489559003,178.47484707474
1701072051491,22.322927651050016,-2.426504189559003,179.42087967474
1701072051506,22.529820951050016,-2.513052469559004,180.36632857474
1701072051519,22.74062275105001,-2.5950713495590034,181.30936017474
1701072051534,22.955086251050016,-2.6672694395590035,182.24908597474
1701072051547,23.17127215105001,-2.7168804595590035,183.18829527474
1701072051561,23.38859745105001,-2.7186878855590035,184.13282507474
1701072051575,23.606910451050013,-2.664532815559004,185.08697847474
1701072051589,23.82392625105001,-2.579770025559004,186.04806377474
1701072051603,24.03862265105001,-2.485091715559004,187.01064227474
1701072051617,24.24960085105001,-2.3929860555590032,187.97357757474
1701072051631,24.45576525105001,-2.313237435559003,188.93393547474
1701072051645,24.65483825105001,-2.250370625559003,189.88955417474
1701072051659,24.845961351050008,-2.200708605559003,190.83901797474
1701072051673,25.02794185105001,-2.156436635559003,191.78285027474
1701072051686,25.19996835105001,-2.105688985559003,192.72296757474
1701072051699,25.36287225105001,-2.041639395559003,193.66158637474
1701072051714,25.51680465105001,-1.9631814255590028,194.59928377474
1701072051727,25.66186125105001,-1.8740668155590028,195.53433147474
1701072051741,25.79860455105001,-1.7771737955590028,196.46570237474
1701072051755,25.92783095105001,-1.6733839955590029,197.39270517474
1701072051769,26.051987551050008,-1.5646712955590028,198.31651287474
1701072051783,26.17234755105001,-1.4542157955590027,199.23735937474
1701072051797,26.289202651050008,-1.3470951955590027,200.15489297474
1701072051811,26.402577751050007,-1.2474843855590028,201.06911637474
1701072051825,26.513059351050007,-1.1587118455590029,201.98031967474
1701072051838,26.620343951050007,-1.0839213855590029,202.88908227474
1701072051853,26.724495451050007,-1.026066405559003,203.79617837474
1701072051866,26.825904051050006,-0.985541575559003,204.70273307474
1701072051880,26.924816261050008,-0.962142225559003,205.60971797474
1701072051895,27.02104088105001,-0.954599474559003,206.51848677474
1701072051908,27.11390417105001,-0.9619580755590028,207.43079507474
1701072051922,27.20324116105001,-0.9844889655590028,208.34853837474
1701072051936,27.28931645105001,-1.020718645559003,209.27219867474
1701072051950,27.37230549105001,-1.069955825559003,210.20274787474
1701072051963,27.45180837105001,-1.130274085559003,211.13959137474
1701072051977,27.52725478105001,-1.2009095055590029,212.08245527474
1701072051991,27.59814688105001,-1.280239775559003,213.03126217474
1701072052005,27.66395395105001,-1.368119295559003,213.98616227474
1701072052019,27.72517542105001,-1.462804815559003,214.94753357474
1701072052033,27.78216628105001,-1.562283645559003,215.91570267474
1701072052047,27.83503448105001,-1.664445945559003,216.89072017474
1701072052061,27.88348918105001,-1.766938545559003,217.87239337474
1701072052075,27.92804875105001,-1.868065345559003,218.86011647474
1701072052089,27.96872189105001,-1.966559795559003,219.85336447474
1701072052103,28.00583436105001,-2.060296345559003,220.85225797474
1701072052117,28.03915786105001,-2.1475202155590027,221.85625997474
1701072052132,28.06840783105001,-2.226272945559003,222.86497997474
1701072052146,28.09329861105001,-2.297553255559003,223.87687697474
1701072052158,28.113063811050008,-2.363854805559003,224.88958297474
1701072052172,28.12820276105001,-2.424344055559003,225.90015797474
1701072052186,28.13989993105001,-2.465602775559003,226.90899697474
1701072052200,28.15199884105001,-2.461597244559003,227.92009697474
1701072052214,28.16764455105001,-2.400513954559003,228.93807297474
1701072052228,28.18774133105001,-2.300485054559003,229.96311397474
1701072052241,28.21196251105001,-2.187111054559004,230.98958397474
1701072052256,28.24065833105001,-2.0793847545590034,232.01434997474
1701072052269,28.27402698105001,-1.992200864559004,233.03340297474
1701072052283,28.31203311105001,-1.9283496245590035,234.04529097474
1701072052296,28.35559463105001,-1.876991844559004,235.05183697474
1701072052310,28.40688504105001,-1.8269115245590035,236.05042077474
1701072052324,28.46653442105001,-1.7694046045590035,237.04315487474
1701072052338,28.53464338105001,-1.7027436645590035,238.02936007474
1701072052352,28.61070213105001,-1.6272646245590034,239.00776547474
1701072052367,28.69344156105001,-1.5446181145590034,239.97737117474
1701072052380,28.782132911050013,-1.4506888045590034,240.93850767474
1701072052394,28.87685970105001,-1.3416190045590035,241.89098927474
1701072052408,28.97613144105001,-1.2221580045590037,242.83617467474
1701072052422,29.078827741050013,-1.1001695045590034,243.77456257474003
1701072052435,29.18513114105001,-0.9840117045590034,244.70667077474
1701072052450,29.29566724105001,-0.8799371045590034,245.63434657474
1701072052464,29.41051714105001,-0.7928364545590034,246.55870297474
1701072052477,29.529558641050016,-0.7268692545590034,247.48057657474
1701072052491,29.652320241050017,-0.6861307545590034,248.40080447474
1701072052505,29.778514141050017,-0.6696570245590034,249.32072597474
1701072052519,29.907891941050018,-0.6745760765590034,250.24164517474
1701072052533,30.041354941050017,-0.6978387465590035,251.16533207474
1701072052547,30.179470041050017,-0.7354492365590035,252.09237507474
1701072052560,30.323041241050017,-0.7853927465590035,253.02302887474
1701072052575,30.47242314105002,-0.8467944465590035,253.95720837474
1701072052588,30.62826054105001,-0.9190120865590036,254.89504487474
1701072052602,30.790352041050017,-1.0000238765590037,255.83585187474
1701072052616,30.958220741050017,-1.0888363665590035,256.77958797474
1701072052630,31.13125534105001,-1.1828437265590035,257.72654017474
1701072052644,31.30922884105001,-1.2774864965590036,258.67764337473994
1701072052658,31.49209034105002,-1.3688144365590036,259.6333605747399
1701072052673,31.67956334105002,-1.4556903565590036,260.5933820747399
1701072052687,31.87140214105002,-1.5388859565590036,261.5575734747399
1701072052699,32.067616041050016,-1.6198685865590037,262.5249094747399
1701072052713,32.26818944105002,-1.6980079765590037,263.4953042747399
1701072052728,32.47289774105002,-1.7725012765590038,264.4686985747399
1701072052741,32.68154134105002,-1.843372596559004,265.4444333747399
1701072052755,32.894278241050024,-1.910097586559004,266.4220844747399
1701072052770,33.11038184105002,-1.971907706559004,267.4004562747399
1701072052784,33.328698541050024,-2.029065156559004,268.3776370747399
1701072052797,33.548198441050026,-2.081283176559004,269.3509739747399
1701072052810,33.767574741050026,-2.116282876559004,270.3225230747399
1701072052825,33.98666724105003,-2.102517266559004,271.2974663747399
1701072052839,34.206644541050025,-2.037551836559004,272.2790490747399
1701072052853,34.425038341050026,-1.945752886559004,273.2679073747399
1701072052866,34.640121141050024,-1.846165236559004,274.2598617747399
1701072052880,34.85121224105002,-1.756423736559004,275.2526750747399
1701072052894,35.05602834105002,-1.688927566559004,276.2420090747399
1701072052908,35.25400304105003,-1.643732996559004,277.22517077473987
1701072052923,35.445517141050026,-1.610609386559004,278.20208937473984
1701072052936,35.630195341050026,-1.575636546559004,279.1727130747398
1701072052950,35.806595241050026,-1.526445426559004,280.1403607747398
1701072052963,35.97442654105003,-1.458240606559004,281.1074383747398
1701072052977,36.13339214105003,-1.3728746165590038,282.0736347747398
1701072052992,36.28381494105003,-1.2702392165590035,283.0390891747398
1701072053006,36.42694004105003,-1.1507338165590038,284.00352747473977
1701072053019,36.56379364105003,-1.0196040165590037,284.9664533747398
1701072053033,36.69558674105004,-0.8852652165590037,285.92743477473977
1701072053047,36.82316504105004,-0.7553067165590037,286.8866727747398
1701072053061,36.94708244105004,-0.6367158165590037,287.8450840747398
1701072053075,37.067188041050045,-0.5333515165590037,288.8030312747398
1701072053089,37.18367834105005,-0.4482096665590037,289.7614072747398
1701072053103,37.296329741050045,-0.3838130865590037,290.7206850747398
1701072053117,37.40496044105005,-0.3413251565590037,291.68136567473977
1701072053130,37.51036074105004,-0.3220704665590037,292.6446645747397
1701072053144,37.61380864105004,-0.3246211555590036,293.6119275747397
1701072053158,37.71577534105004,-0.3461213755590037,294.58437507473974
1701072053172,37.81597354105004,-0.3864805055590037,295.56280037473977
1701072053186,37.91303595105004,-0.4445105255590037,296.54732527473976
1701072053200,38.00606162105005,-0.5199293555590038,297.53883727473976
1701072053214,38.09507864105005,-0.6086139355590038,298.53731707473975
1701072053228,38.180157061050046,-0.7077501255590037,299.54296307473976
1701072053243,38.26211956105005,-0.8160709255590037,300.55541407473976
1701072053257,38.34012109105005,-0.9336696255590038,301.57478607473973
1701072053270,38.41401193105005,-1.0582037255590038,302.60061107473973
1701072053285,38.48266168105005,-1.1865652255590038,303.63282407473974
1701072053298,38.545918571050045,-1.318291725559004,304.67105807473973
1701072053312,38.60388662105005,-1.451231225559004,305.71583007473976
1701072053326,38.65653880105005,-1.5820718255590038,306.7679180747398
1701072053340,38.703881641050046,-1.7070363255590038,307.8285190747398
1701072053354,38.74623548105004,-1.825368725559004,308.8967880747398
1701072053368,38.783268411050045,-1.938536725559004,309.9722950747398
1701072053382,38.81496631105004,-2.0462872255590034,311.0540370747398
1701072053396,38.84090694105005,-2.147422725559004,312.14068907473984
1701072053410,38.86139568105004,-2.242234955559004,313.22931907473986
1701072053423,38.87661748105004,-2.331829025559004,314.3152030747399
1701072053437,38.88866727105004,-2.405965435559003,315.39694107473986
1701072053452,38.90103744105004,-2.430743275559004,316.48000707473983
1701072053465,38.91973273105003,-2.382930275559003,317.56866207473985
1701072053479,38.944199901050034,-2.294685165559004,318.66507307473984
1701072053493,38.97371856105004,-2.199229615559003,319.76368207473985
1701072053506,39.00932274105004,-2.116838915559004,320.86077007473983
1701072053521,39.051516451050034,-2.052291005559004,321.9545080747398
1701072053535,39.10239390105004,-1.9901471655590035,323.04451107473983
1701072053549,39.16214690105004,-1.914737465559004,324.1271220747398
1701072053563,39.232220471050034,-1.8203550855590032,325.20179707473983
1701072053576,39.31386632105004,-1.711556485559003,326.2675260747398
1701072053590,39.40597104105004,-1.593200285559003,327.32384807473983
1701072053604,39.50397744105004,-1.467626085559003,328.3709110747398
1701072053618,39.60297602105004,-1.332008885559003,329.4112490747398
1701072053632,39.70096474105004,-1.183025485559003,330.4462210747398
1701072053645,39.79819775105003,-1.026862185559003,331.4770320747398
1701072053659,39.89482588105003,-0.874957485559003,332.50396807473976
1701072053674,39.99124800105003,-0.738573785559003,333.52758107473977
1701072053688,40.08775086105003,-0.626075985559003,334.5488290747398
1701072053701,40.18477833105003,-0.541167435559003,335.5689930747398
1701072053716,40.28237629105004,-0.485895965559003,336.5891040747398
1701072053729,40.38091347105004,-0.460184235559003,337.6096900747398
1701072053743,40.48093287105004,-0.464514893559003,338.63186807473977
1701072053756,40.58215697105004,-0.493367953559003,339.65698207473974
1701072053770,40.68502807105004,-0.5417690135590031,340.68661407473974
1701072053785,40.790691371050045,-0.6059700735590031,341.72061007473974
1701072053798,40.900693371050046,-0.6861297135590031,342.7592940747397
1701072053812,41.01550067105005,-0.7799584835590031,343.80234107473973
1701072053827,41.13543457105005,-0.8841830835590031,344.8491990747397
1701072053840,41.26020067105005,-0.996035083559003,345.8993420747397
1701072053854,41.38992687105005,-1.114550583559003,346.9526760747397
1701072053867,41.52448197105005,-1.237494683559003,348.00897607473973
1701072053881,41.66470387105005,-1.3614839835590031,349.06809507473974
1701072053895,41.81177077105005,-1.4842197835590032,350.12976107473975
1701072053909,41.96611087105005,-1.604112583559003,351.1947590747397
1701072053923,42.12876157105005,-1.718476683559003,352.26357907473977
1701072053937,42.298776971050046,-1.826731183559003,353.33600607473977
1701072053953,42.475340471050046,-1.929546383559003,354.4116760747398
1701072053964,42.657447771050045,-2.028674583559003,355.48978907473975
1701072053978,42.84411257105005,-2.123998383559003,356.5692320747398
1701072053993,43.03484497105005,-2.213870113559003,357.64923107473976
1701072054006,43.228434071050046,-2.2967372035590032,358.72846807473974
1701072054020,43.423545871050045,-2.371386593559003,359.8054770747397
1701072054034,43.619015871050046,-2.430852263559003,360.8815030747397
1701072054048,43.81455307105004,-2.446363543559003,361.9627800747397
1701072054061,44.01109927105004,-2.402116743559003,363.0520220747397
1701072054075,44.20605427105004,-2.323743523559003,364.15013007473976
1701072054089,44.39670477105004,-2.240835143559003,365.25078907473977
1701072054103,44.58319357105004,-2.168344633559003,366.35055207473977
1701072054118,44.76456587105004,-2.116404763559003,367.44622107473975
1701072054131,44.93935187105004,-2.0825376635590027,368.5358820747397
1701072054144,45.105967271050034,-2.057421703559003,369.6160860747397
1701072054159,45.26290247105003,-2.028570413559003,370.6855630747397
1701072054172,45.40802437105003,-1.9883642435590028,371.7449390747397
1701072054187,45.54145367105004,-1.9331666035590027,372.7969660747397
1701072054200,45.66366497105003,-1.8579001335590024,373.8437300747397
1701072054214,45.77590567105003,-1.7545158335590023,374.8866880747397
1701072054228,45.87930197105003,-1.6219840335590026,375.9264460747397
1701072054242,45.97492217105003,-1.4741699335590026,376.9620620747397
1701072054257,46.063335501050034,-1.324819433559003,377.9924450747397
1701072054271,46.14630806105004,-1.182891933559003,379.0193540747397
1701072054284,46.22551700105004,-1.0518442335590028,380.04439907473966
1701072054297,46.30270503105004,-0.9343792335590028,381.0687650747397
1701072054311,46.37795950105004,-0.8348266535590028,382.09316607473966
1701072054326,46.45093761105004,-0.7570678535590027,383.1177560747397
1701072054339,46.52086116105004,-0.7055451735590027,384.14345807473967
1701072054355,46.58791253105004,-0.6797553835590027,385.1709020747397
1701072054368,46.65213838105004,-0.6790158170590027,386.2008770747397
1701072054381,46.713935371050034,-0.7001271570590027,387.2343140747397
1701072054396,46.77351522105003,-0.7408942470590028,388.27226807473966
1701072054409,46.83034408105004,-0.7998702170590027,389.3157580747397
1701072054423,46.883914051050034,-0.8763326970590027,390.3660510747397
1701072054437,46.933828201050034,-0.9665992070590028,391.4235240747397
1701072054451,46.98011657105003,-1.0680983070590029,392.4888070747397
1701072054465,47.02247318105003,-1.1788553070590029,393.5621450747397
1701072054479,47.06077608105003,-1.2963282070590028,394.6429730747397
1701072054493,47.09408748105003,-1.417458507059003,395.7310720747397
1701072054507,47.12279406105003,-1.5398844070590028,396.8262200747397
1701072054521,47.14665001105003,-1.6620319070590028,397.9282150747397
1701072054535,47.16552474105003,-1.7839328070590028,399.03669607473967
1701072054549,47.179619391050025,-1.9041527070590027,400.15104807473966
1701072054563,47.18915288605002,-2.0226066070590027,401.2707650747397
1701072054576,47.19381560805002,-2.1379889070590026,402.3956590747396
1701072054591,47.193821419503024,-2.2480508070590024,403.52557907473965
1701072054604,47.18959068150303,-2.350418807059002,404.6592610747397
1701072054618,47.18117793250303,-2.4462190970590023,405.79340607473966
1701072054632,47.16899102250303,-2.530499737059002,406.92653107473967
1701072054646,47.15567051250303,-2.571502857059002,408.06324607473965
1701072054660,47.14535611250303,-2.548706007059002,409.2058860747396
1701072054674,47.13900502850303,-2.482850087059002,410.3544120747396
1701072054688,47.13676329750303,-2.4073599870590017,411.5000540747397
1701072054702,47.13978638550303,-2.343305577059001,412.63907007473966
1701072054716,47.14932712250303,-2.2932194370590016,413.7722970747397
1701072054729,47.16753398250303,-2.2388139070590016,414.9016890747397
1701072054744,47.19621919250303,-2.165083537059002,416.0273420747397
1701072054758,47.23679761250303,-2.072147037059002,417.1488140747396
1701072054770,47.28926293250304,-1.9676623370590016,418.2641340747396
1701072054786,47.35336874250304,-1.8578496370590016,419.3705020747396
1701072054798,47.42837275250304,-1.743775337059002,420.4660270747396
1701072054812,47.51252931250304,-1.622028737059002,421.5519340747396
1701072054827,47.60519565250304,-1.489027337059002,422.6290190747396
1701072054840,47.70626075250304,-1.349435537059002,423.69671007473966
1701072054854,47.81370335250303,-1.2118939370590018,424.7559270747397
1701072054868,47.92635575250304,-1.0815095370590018,425.8072870747396
1701072054882,48.04438685250304,-0.9634052370590018,426.85133807473966
1701072054896,48.16791015250304,-0.8635325470590018,427.8889260747397
1701072054910,48.29652935250304,-0.7864708970590019,428.92126707473966
1701072054923,48.43051715250304,-0.7361898270590018,429.94951907473967
1701072054937,48.569866152503046,-0.7138576970590018,430.97523307473966
1701072054951,48.71461675250305,-0.7190646740590018,431.99998007473965
1701072054965,48.86469955250305,-0.7461083740590018,433.02552907473967
1701072054979,49.02069495250305,-0.7906410340590018,434.05367407473966
1701072054994,49.18223245250305,-0.8484362440590018,435.0850760747397
1701072055007,49.35057515250305,-0.9184991840590018,436.11966207473967
1701072055021,49.52614115250305,-1.0004409040590017,437.15645007473967
1701072055034,49.70949585250305,-1.0934308140590017,438.1950990747397
1701072055048,49.90134655250306,-1.1954653140590017,439.2357130747397
1701072055063,50.10090795250306,-1.3036903140590017,440.2784220747397
1701072055076,50.308312652503055,-1.4154968140590016,441.3240060747397
1701072055090,50.52329795250306,-1.5282668140590017,442.3731970747397
1701072055104,50.74621905250306,-1.6403166140590018,443.4268080747397
1701072055118,50.97678805250306,-1.7510522140590017,444.4852380747397
1701072055132,51.21464695250306,-1.8594176140590013,445.5482770747397
1701072055146,51.45895075250306,-1.9660323140590017,446.6146330747397
1701072055160,51.70948345250306,-2.0712825140590017,447.6832320747397
1701072055174,51.96600205250306,-2.1746381140590016,448.7522230747397
1701072055188,52.22764895250306,-2.2748281140590016,449.8196670747397
1701072055201,52.49285435250306,-2.3699505240590018,450.8836760747397
1701072055215,52.75970875250306,-2.453530794059002,451.9436520747397
1701072055229,53.02725375250306,-2.500095224059002,453.0045640747397
1701072055243,53.296975952503054,-2.480268044059002,454.0733860747397
1701072055257,53.567657952503055,-2.408881004059002,455.1503810747397
1701072055272,53.83570325250305,-2.321587184059002,456.2284960747397
1701072055285,54.09965355250305,-2.2405777140590017,457.3017290747397
1701072055298,54.35713185250305,-2.178567914059002,458.3670890747397
1701072055312,54.605415552503054,-2.139443824059002,459.4200950747397
1701072055326,54.84051075250306,-2.115365274059002,460.4603390747397
1701072055340,55.06203705250306,-2.085460674059002,461.4911660747397
1701072055354,55.26929435250306,-2.0312819240590017,462.5163300747397
1701072055368,55.46410765250306,-1.9495990740590017,463.5395790747397
1701072055383,55.64796845250306,-1.8486977740590016,464.5602450747397
1701072055396,55.820986252503054,-1.7353030740590016,465.5775190747397
1701072055409,55.98560045250306,-1.6086849740590017,466.5932740747397
1701072055424,56.142023652503056,-1.4681582740590016,467.6073330747397
1701072055437,56.29154795250306,-1.3213270740590015,468.6192010747397
1701072055452,56.43510205250306,-1.1753885740590015,469.6291920747397
1701072055465,56.57344735250306,-1.0353904740590016,470.6382930747397
1701072055479,56.70740395250306,-0.9045739740590016,471.64829807473967
1701072055493,56.83744345250306,-0.7860931740590016,472.6611860747397
1701072055507,56.96464415250306,-0.6857805740590016,473.6782620747396
1701072055522,57.08935695250306,-0.6079703640590016,474.7000600747396
1701072055535,57.21207365250306,-0.5563463640590016,475.7271370747396
1701072055549,57.332932852503056,-0.5339716940590016,476.7607670747397
1701072055562,57.451765052503056,-0.5384228910590015,477.8008970747396
1701072055576,57.56837945250306,-0.5681541210590015,478.8473230747396
1701072055590,57.68324195250306,-0.6213421910590016,479.9007810747396
1701072055604,57.79604205250306,-0.6971004810590016,480.9615450747396
1701072055619,57.90669805250306,-0.7907154010590016,482.0298750747396
1701072055632,58.01466935250306,-0.8974858010590017,483.1055100747396
1701072055645,58.11878465250306,-1.0137562010590018,484.1874400747396
1701072055660,58.21818875250306,-1.1368687010590015,485.2755160747396
1701072055674,58.31261215250306,-1.2651368010590018,486.3687240747396
1701072055688,58.401827182503055,-1.3973632010590018,487.4667030747396
1701072055702,58.48540708250305,-1.5326880010590018,488.5695520747396
1701072055715,58.56323883250305,-1.6691448010590018,489.6769560747396
1701072055729,58.63504487250305,-1.8034799010590017,490.7886700747396
1701072055743,58.70118367250305,-1.9339097010590016,491.9043050747396
1701072055757,58.76114937250305,-2.058436401059001,493.0239830747396
1701072055771,58.81552919250305,-2.1757557010590016,494.1475730747396
1701072055785,58.864433492503046,-2.283241601059001,495.2749230747396
1701072055799,58.90706822250305,-2.3787598410590016,496.4047390747396
1701072055812,58.94480303250305,-2.4634911410590017,497.53445407473953
1701072055827,58.97939265250305,-2.5351750610590016,498.6622790747395
1701072055841,59.01425597250305,-2.568469971059001,499.7927320747395
1701072055855,59.05439401250305,-2.5371716210590014,500.9304720747395
1701072055868,59.10214597250305,-2.456467251059001,502.0757830747395
1701072055882,59.156341942503055,-2.3652469410590014,503.2235360747395
1701072055896,59.21727175250305,-2.2915692510590016,504.37009807473953
1701072055910,59.28416998250305,-2.2415447210590016,505.51642007473953
1701072055924,59.35782269250305,-2.1951070610590016,506.6660380747395
1701072055939,59.43961329250305,-2.131583421059001,507.8181050747395
1701072055953,59.53085143250305,-2.049341721059001,508.9708170747395
1701072055965,59.63153213250305,-1.9590266810590016,510.1175550747395
1701072055980,59.73932103250305,-1.8698134310590016,511.2529440747395
1701072055993,59.85135353250305,-1.7844047310590017,512.3735300747395
1701072056007,59.96573263250305,-1.6944511110590017,513.4797060747395
1701072056022,60.08238233250305,-1.5867889110590017,514.5740940747395
1701072056035,60.19965023250305,-1.4569143110590017,515.6587310747395
1701072056049,60.315694132503054,-1.3117353110590018,516.7331320747395
1701072056062,60.42914633250305,-1.1660855110590018,517.7969750747395
1701072056076,60.540555332503054,-1.030262311059002,518.8505640747395
1701072056091,60.65076633250305,-0.911041711059002,519.8957730747395
1701072056104,60.76072533250306,-0.8132501610590019,520.9344910747395
1701072056118,60.87108423250306,-0.741208401059002,521.9691180747395
1701072056132,60.98226293250306,-0.695378031059002,523.0014850747395
1701072056146,61.09491313250306,-0.675120071059002,524.0334340747396
1701072056160,61.20991943250306,-0.679250925059002,525.0668370747396
1701072056173,61.32801663250306,-0.7039267550590019,526.1029050747396
1701072056188,61.44921673250306,-0.7471040350590019,527.1420980747396
1701072056201,61.57382143250306,-0.8055603950590019,528.1853400747395
1701072056216,61.70240903250306,-0.8777023250590019,529.2328720747396
1701072056229,61.83520923250306,-0.960730105059002,530.2842980747396
1701072056243,61.97327773250306,-1.053154755059002,531.3389260747396
1701072056257,62.11804553250306,-1.152900115059002,532.3961070747396
1701072056272,62.27027933250306,-1.257564415059002,533.4560440747396
1701072056285,62.429490732503055,-1.363240915059002,534.5195140747396
1701072056298,62.59538263250305,-1.468516215059002,535.5874730747396
1701072056312,62.767822132503056,-1.5732609150590018,536.6604390747395
1701072056327,62.946441932503056,-1.6787081150590015,537.7378910747395
1701072056342,63.13168153250306,-1.7861610150590017,538.8190620747396
1701072056355,63.323083532503055,-1.8951048150590013,539.9030180747395
1701072056368,63.52003663250306,-2.0034448150590016,540.9890300747395
1701072056381,63.722296232503055,-2.109037315059002,542.0762340747395
1701072056395,63.92871033250306,-2.211304515059002,543.1630630747395
1701072056409,64.13797853250306,-2.311760115059002,544.2459990747395
1701072056423,64.34809443250306,-2.398392755059002,545.3268490747396
1701072056438,64.55916423250306,-2.435847065059002,546.4123250747396
1701072056451,64.77207343250306,-2.405727165059002,547.5063470747396
1701072056465,64.98298843250306,-2.3386458650590023,548.6070370747395
1701072056479,65.18929313250307,-2.2621619550590024,549.7057650747396
1701072056493,65.38968543250307,-2.1954788150590026,550.7982310747395
1701072056507,65.58236523250307,-2.1476074050590026,551.8815940747395
1701072056521,65.76486923250306,-2.1148738650590024,552.9543170747395
1701072056534,65.93475283250307,-2.085693285059002,554.0153650747395
1701072056549,66.09071223250307,-2.0453481450590028,555.0660390747395
1701072056562,66.23167993250307,-1.9869486150590028,556.1078020747394
1701072056577,66.35766683250307,-1.9101416850590027,557.1420280747394
1701072056590,66.46816553250306,-1.8144195750590024,558.1670650747394
1701072056604,66.56559433250307,-1.6969347750590027,559.1841720747394
1701072056619,66.65280503250307,-1.5581080750590026,560.1937830747394
1701072056632,66.73107515250307,-1.4061208750590026,561.1952130747394
1701072056646,66.80298431250307,-1.2526664750590026,562.1896044747394
1701072056660,66.87027201250307,-1.1041615750590026,563.1792061747394
1701072056674,66.93433049250307,-0.9640601750590024,564.1657320747394
1701072056689,66.99627499250306,-0.8371760750590025,565.1508605747393
1701072056701,67.05708237250306,-0.7285931750590025,566.1359318747393
1701072056715,67.11652993250306,-0.6437594350590025,567.1218853747393
1701072056729,67.17448190250306,-0.5875499750590024,568.1094696747393
1701072056743,67.23095673250306,-0.5585193050590024,569.0994673747393
1701072056757,67.28643544250306,-0.5534116450590024,570.0932281747394
1701072056771,67.34119238250307,-0.5692310950590024,571.0914484747393
1701072056785,67.39449546250307,-0.6072764850590023,572.0955744747394
1701072056800,67.44527868250307,-0.6659646250590023,573.1052634747393
1701072056813,67.49214003250307,-0.7448010250590024,574.1200774747393
1701072056827,67.53486160250307,-0.8409271450590023,575.1406734747393
1701072056841,67.57376439250307,-0.9495719450590024,576.1668154747393
1701072056855,67.60849158250306,-1.0689146450590024,577.1993474747393
1701072056867,67.63873125250306,-1.1945462450590023,578.2379624747393
1701072056882,67.66407085250306,-1.3260385450590024,579.2815354747394
1701072056896,67.68411243250306,-1.4637561450590024,580.3298164747393
1701072056909,67.69875243250306,-1.6068178450590025,581.3822144747394
1701072056923,67.70827346950306,-1.7506522450590023,582.4395904747394
1701072056938,67.71332451650305,-1.8894641450590024,583.5018434747394
1701072056952,67.71445408450305,-2.0185168450590023,584.5691894747395
1701072056965,67.71161997350305,-2.1385811450590024,585.6407254747395
1701072056979,67.70458567150305,-2.2513315450590023,586.7150954747395
1701072056993,67.69332981150305,-2.355956645059002,587.7908824747395
1701072057007,67.67824581150305,-2.4478066250590023,588.8669364747395
1701072057022,67.66091558150305,-2.519053225059002,589.9435064747395
1701072057035,67.64408368150305,-2.546895085059002,591.0256514747394
1701072057049,67.63143355150305,-2.5128441550590024,592.1173034747394
1701072057063,67.62437624250305,-2.4357058850590025,593.2178074747394
1701072057076,67.62212101150304,-2.3489041150590024,594.3219614747394
1701072057090,67.62561554250304,-2.2740754150590026,595.4265364747394
1701072057104,67.63518128350304,-2.2201972350590027,596.5293514747393
1701072057118,67.65284395350305,-2.177048055059003,597.6300344747393
1701072057132,67.68048847350305,-2.125054465059003,598.7287104747393
1701072057146,67.71932680350305,-2.053103645059003,599.8218264747393
1701072057160,67.77039978350305,-1.9628422650590027,600.9079714747393
1701072057174,67.83292449350306,-1.8629982450590028,601.9839494747392
1701072057188,67.90461934350306,-1.7585370450590028,603.0477394747393
1701072057201,67.98417779350305,-1.6465359450590027,604.0995114747393
1701072057215,68.06965920350305,-1.5185991450590026,605.1414914747393
1701072057229,68.15973231350306,-1.3764350450590026,606.1735854747393
1701072057244,68.25309779350306,-1.2288818450590029,607.1960464747393
1701072057258,68.34887548350306,-1.0839628450590026,608.2089854747393
1701072057271,68.44703618350306,-0.9479873450590026,609.2146874747393
1701072057285,68.54853338350306,-0.8268040450590026,610.2152154747394
1701072057298,68.65382388350305,-0.7256244450590026,611.2125943747393
1701072057312,68.76343498350305,-0.6498726850590026,612.2085187747393
1701072057326,68.87679978350305,-0.6026524650590026,613.2034967747393
1701072057340,68.99277588350304,-0.5857368350590026,614.1983929747392
1701072057355,69.11051648350305,-0.5985652350590026,615.1946210747393
1701072057369,69.23013918350304,-0.6341419250590026,616.1936428747393
1701072057382,69.35251928350304,-0.6861775950590026,617.1967178747393
1701072057395,69.47887978350305,-0.7515657050590026,618.2041448747393
1701072057410,69.60967158350304,-0.8306529950590026,619.2157758747393
1701072057425,69.74560518350305,-0.9232422850590026,620.2312568747393
1701072057438,69.88661288350305,-1.0259402850590027,621.2496408747393
1701072057451,70.03219508350305,-1.1355866850590026,622.2702618747393
1701072057465,70.18208048350306,-1.2497395850590023,623.2930888747393
1701072057478,70.33696908350306,-1.3659681850590024,624.3184058747393
1701072057493,70.49781978350306,-1.4828070850590025,625.3463628747393
1701072057506,70.66568558350306,-1.5989628850590023,626.3781288747392
1701072057521,70.84033318350306,-1.7127702850590023,627.4143668747392
1701072057535,71.02184508350307,-1.8217273850590023,628.4559668747393
1701072057548,71.20951188350307,-1.9253066850590024,629.5027498747393
1701072057562,71.40313358350306,-2.0257815850590024,630.5537058747393
1701072057577,71.60190928350306,-2.1235904050590024,631.6081598747393
1701072057591,71.80534428350306,-2.2169001250590026,632.6650758747393
1701072057604,72.01217358350306,-2.3044305150590025,633.7233588747392
1701072057618,72.22041638350305,-2.3850503850590026,634.7804628747392
1701072057632,72.42843678350305,-2.4483661050590024,635.8368058747392
1701072057645,72.63639458350305,-2.4655926250590023,636.8972238747392
1701072057659,72.84486258350304,-2.4204038250590023,637.9653958747392
1701072057674,73.05089658350305,-2.3390668950590023,639.0405898747392
1701072057687,73.25139358350305,-2.2466316650590024,640.1164358747392
1701072057701,73.44455138350304,-2.1627627250590025,641.1901548747392
1701072057715,73.62833668350304,-2.0944590950590025,642.2604988747391
1701072057729,73.80108938350304,-2.0381323450590023,643.3242878747392
1701072057743,73.96077268350304,-1.9848877650590024,644.3792968747392
1701072057758,74.10674628350304,-1.9242508550590025,645.4253118747392
1701072057771,74.23727748350304,-1.8502613550590024,646.4630198747392
1701072057786,74.35231018350304,-1.7600803650590024,647.4935058747392
1701072057798,74.45199054350303,-1.6495903650590025,648.5169428747391
1701072057813,74.53947991350303,-1.5109878650590025,649.5357638747391
1701072057827,74.61841455350303,-1.3473268650590025,650.5502068747392
1701072057842,74.69040933350303,-1.1720164650590024,651.5590938747391
1701072057855,74.75696647350303,-1.0000255650590024,652.5611938747392
1701072057868,74.81921227350303,-0.8406957650590025,653.5578640747392
1701072057882,74.87885199350303,-0.6990732650590025,654.5501513747392
1701072057896,74.93674339350304,-0.5772281650590024,655.5398819747393
1701072057910,74.99378034350303,-0.4777036950590024,656.5286405747393
1701072057925,75.04998628350303,-0.4010372050590024,657.5174578747393
1701072057938,75.10437097350304,-0.3506999450590024,658.5064639747393
1701072057951,75.15735026350303,-0.3252233250590024,659.4968465747393
1701072057965,75.20902600350303,-0.3253027559290024,660.4890605747393
1701072057979,75.25990201350302,-0.3487153159290024,661.4839254747393
1701072057993,75.30994786350303,-0.3948700659290024,662.4821714747393
1701072058007,75.35830162350302,-0.4622410559290024,663.4840814747392
1701072058019,75.40449820350302,-0.5434309759290025,664.4891754747392
1701072058032,75.44676606350302,-0.6375820859290025,665.4976944747392
1701072058045,75.48431585350302,-0.7428080859290025,666.5098944747392
1701072058060,75.51743589350302,-0.8569898859290025,667.5251604747392
1701072058074,75.54649715350303,-0.9782669859290024,668.5436014747393
1701072058089,75.57102083350303,-1.1050362859290026,669.5653284747393
1701072058102,75.59002836350302,-1.234118185929003,670.5905944747393
1701072058116,75.60296522350302,-1.3621775859290026,671.6199774747394
1701072058129,75.60911689950302,-1.4857158859290027,672.6541104747394
1701072058143,75.60917298747302,-1.6030902859290028,673.6931404747394
1701072058158,75.60328378047302,-1.7127488859290028,674.7372034747394
1701072058171,75.59213327047303,-1.8126837659290027,675.7865284747394
1701072058185,75.57606675047303,-1.9011531059290028,676.8407234747394
1701072058199,75.55562513047303,-1.9794788659290028,677.8975314747395
1701072058213,75.53107013047303,-2.048768025929003,678.9548444747395
1701072058227,75.50335263047303,-2.1052152559290027,680.0109304747396
1701072058240,75.47470998047304,-2.125382045929003,681.0698254747396
1701072058254,75.44846448047304,-2.080746555929003,682.1372584747396
1701072058268,75.42666325047304,-1.9791689559290029,683.2143424747396
1701072058282,75.41024670047304,-1.8516124559290028,684.2956884747397
1701072058296,75.40101161647304,-1.7268587559290027,685.3742584747397
1701072058310,75.39801952247304,-1.6254442559290028,686.4464354747397
1701072058324,75.40100964947304,-1.5482484359290027,687.5116534747397
1701072058338,75.41091755047304,-1.4824993859290028,688.5687044747397
1701072058352,75.42904994047305,-1.4113901559290027,689.6179214747397
1701072058366,75.45750487047304,-1.3264067559290027,690.6580384747397
1701072058379,75.49776277047305,-1.2299790059290028,691.6870154747397
1701072058394,75.54947168047305,-1.1283052059290029,692.7014874747397
1701072058407,75.61093706047305,-1.020723005929003,693.7008018747397
1701072058422,75.68072802047305,-0.8999152059290029,694.6856385747396
1701072058435,75.75740437047305,-0.7595578059290029,695.6592475747397
1701072058449,75.83927497047306,-0.6030774059290029,696.6233311747396
1701072058463,75.92384346047305,-0.4444243059290029,697.5781878747397
1701072058476,76.00935145047305,-0.2952529059290029,698.5254882747397
1701072058491,76.09546198047305,-0.1602216059290029,699.4685003747397
1701072058504,76.18193999047304,-0.0431068059290029,700.4093193747398
1701072058519,76.26887415047304,0.052382654070997,701.3501662747398
1701072058532,76.35585341047305,0.122812274070997,702.2926828747397
1701072058546,76.44340345047304,0.165398244070997,703.2380491747398
1701072058562,76.53075973047304,0.181282024070997,704.1877430747398
1701072058575,76.61810920047304,0.172105535070997,705.1433542747399
1701072058588,76.70566722047305,0.142165665070997,706.1054085747398
1701072058601,76.79429399047305,0.094916065070997,707.0742717747398
1701072058615,76.88454426047305,0.031720395070997,708.0500176747398
1701072058630,76.97609489047305,-0.0463508149290029,709.0326467747399
1701072058643,77.06883937047304,-0.1359305649290029,710.0218846747399
1701072058658,77.16302103047305,-0.2342202649290029,711.0170907747399
1701072058671,77.25901473047304,-0.3394541649290029,712.0179887747399
1701072058685,77.35843763047303,-0.4501977649290029,713.02351677474
1701072058698,77.46208863047303,-0.5650555649290029,714.0326207747399
1701072058713,77.57099413047304,-0.682096564929003,715.0448737747399
1701072058726,77.68548233047304,-0.7987629649290029,716.0603677747399
1701072058740,77.80621503047304,-0.9131290649290028,717.07921877474
1701072058754,77.93436503047305,-1.023543764929003,718.10104777474
1701072058768,78.06987993047305,-1.130118764929003,719.1249337747399
1701072058782,78.21336703047305,-1.233195464929003,720.15000577474
1701072058796,78.36355403047305,-1.332294824929003,721.17565577474
1701072058809,78.51987053047306,-1.425785994929003,722.20127777474
1701072058824,78.68156903047306,-1.512221444929003,723.22518777474
1701072058837,78.84741133047305,-1.590548274929003,724.24495977474
1701072058851,79.01500063047305,-1.653005474929003,725.26121277474
1701072058865,79.18289933047305,-1.665399544929003,726.28169977474
1701072058879,79.35098493047305,-1.6071868149290032,727.3090987747399
1701072058893,79.51602853047305,-1.5139888549290033,728.34204877474
1701072058907,79.67662993047306,-1.4136126549290031,729.37328877474
1701072058921,79.83320353047306,-1.3234044349290033,730.39966377474
1701072058935,79.98331803047306,-1.2545206849290034,731.41817177474
1701072058950,80.12463163047306,-1.2053726349290033,732.42543477474
1701072058963,80.25620493047306,-1.1673907349290034,733.41975667474
1701072058976,80.37789923047306,-1.1248852749290033,734.40099327474
1701072058991,80.49123913047306,-1.0631424849290032,735.37252627474
1701072059004,80.59757233047306,-0.9755013549290033,736.33739367474
1701072059018,80.69746048047305,-0.8637043549290032,737.2958967747401
1701072059033,80.79203393047305,-0.7346717549290032,738.2464705747401
1701072059047,80.88321232047305,-0.5900112549290032,739.1896531747401
1701072059060,80.97346801047306,-0.4321726549290032,740.1250256747401
1701072059074,81.06434329047306,-0.2683512549290032,741.05237527474
1701072059088,81.15679775047306,-0.1074296549290032,741.97248807474
1701072059102,81.25192718047306,0.0453943450709967,742.88715577474
1701072059116,81.34945263047307,0.1862779450709968,743.79808647474
1701072059129,81.44945663047307,0.3114010450709967,744.70731957474
1701072059143,81.55218833047307,0.4172504450709967,745.6170132747401
1701072059157,81.65767893047307,0.5001203050709967,746.5286977747401
1701072059171,81.76683943047307,0.5551056450709967,747.4432082747401
1701072059186,81.87982633047307,0.5836705750709967,748.36138967474
1701072059200,81.99610573047306,0.5871876550709967,749.2837092747401
1701072059212,82.11469663047306,0.5674117650709967,750.21075047474
1701072059227,82.23535353047306,0.5246900350709967,751.14368377474
1701072059241,82.35838393047307,0.4616787450709966,752.08305507474
1701072059255,82.48389383047306,0.3808453750709966,753.0286932747399
1701072059269,82.61145503047307,0.2834990450709966,753.9797933747399
1701072059282,82.73918043047307,0.1706134450709966,754.9360882747399
1701072059296,82.86536173047307,0.0465890450709966,755.8971931747399
1701072059310,82.98897883047307,-0.0851718549290033,756.8631977747399
1701072059324,83.11061653047307,-0.2215353549290033,757.8339271747399
1701072059337,83.23021523047306,-0.3610386549290033,758.8089516747399
1701072059351,83.34815653047306,-0.5037464549290034,759.7875345747399
1701072059365,83.46484073047306,-0.6488717549290034,760.7702466747398
1701072059379,83.58065343047306,-0.7937752549290034,761.7571271747398
1701072059393,83.69586153047307,-0.9368673549290034,762.7486809747398
1701072059408,83.81059903047307,-1.0760483549290034,763.7456783747399
1701072059421,83.92487813047308,-1.2110043549290035,764.7482303747399
1701072059435,84.03900253047307,-1.3406624549290034,765.7561143747399
1701072059448,84.15388033047307,-1.4646836549290034,766.7683763747399
1701072059463,84.27072053047307,-1.5846245549290034,767.7834093747399
1701072059476,84.39081453047307,-1.7004936549290035,768.7988573747399
1701072059491,84.51671583047306,-1.7959532849290034,769.8165363747399
1701072059506,84.65288793047306,-1.8350124049290035,770.84143237474
1701072059519,84.80389753047305,-1.806330104929004,771.8764683747399
1701072059532,84.96839853047305,-1.7434309149290037,772.92058137474
1701072059546,85.14567773047305,-1.6763711549290037,773.96753337474
1701072059560,85.33789203047306,-1.6191994549290034,775.0143443747401
1701072059574,85.54465713047306,-1.5684919349290034,776.05901937474
1701072059589,85.76743523047305,-1.514868074929003,777.0981433747401
1701072059602,86.00907093047306,-1.4455921549290034,778.1282203747401
1701072059615,86.27151103047306,-1.357382074929003,779.14687437474
1701072059629,86.55580003047307,-1.2540704749290033,780.15174437474
1701072059643,86.86165723047307,-1.1424540749290033,781.13907507474
1701072059658,87.18564983047307,-1.0280098749290034,782.10863777474
1701072059672,87.52643743047307,-0.9100130749290034,783.0599454747401
1701072059685,87.88420783047307,-0.7831817749290034,783.9923739747401
1701072059699,88.25843043047307,-0.6482605749290035,784.90773467474
1701072059713,88.64804613047306,-0.5149344749290035,785.80621317474
1701072059727,89.05055483047306,-0.3938504749290035,786.6888729747401
1701072059740,89.46330973047306,-0.2930598749290035,787.5570483747401
1701072059754,89.88373213047306,-0.2157782649290034,788.4135175747401
1701072059768,90.31126273047306,-0.1640299149290034,789.2603281747402
1701072059782,90.74551433047306,-0.1381371449290034,790.0997311747401
1701072059796,91.18695973047306,-0.1387549545290034,790.9338120747401
1701072059810,91.63496153047306,-0.1632427745290034,791.7650836747401
1701072059827,92.08894133047306,-0.2091425445290034,792.5953950747402
1701072059839,92.54895703047306,-0.2738430245290034,793.4258667747401
1701072059852,93.01524833047306,-0.3525890845290034,794.2564665747401
1701072059866,93.48911393047304,-0.4426760345290034,795.0866257747401
1701072059879,93.97118513047305,-0.5424033145290035,795.9157416747402
1701072059893,94.46090863047304,-0.6507466145290035,796.7435593747401
1701072059907,94.95869813047304,-0.7667528145290035,797.5704271747401
1701072059922,95.46424393047305,-0.8876216145290035,798.39740307474
1701072059936,95.97903183047303,-1.0116139145290035,799.2242911747401
1701072059951,96.50322023047303,-1.1381656145290036,800.0509437747401
1701072059963,97.03788543047304,-1.2672558145290036,800.8774846747401
1701072059977,97.58332763047304,-1.3968429145290036,801.7042074747401
1701072059991,98.14043843047304,-1.5247043145290036,802.5314327747401
1701072060005,98.71089133047305,-1.6474109145290037,803.3594018747401
1701072060021,99.29439503047304,-1.7642096145290034,804.1877610747401
1701072060033,99.89079143047304,-1.876143314529004,805.0160690747401
1701072060046,100.49963123047304,-1.9828237145290035,805.8443337747401
1701072060061,101.12184953047304,-2.081125394529004,806.67254727474
1701072060074,101.75683333047304,-2.1673609445290034,807.5008752747401
1701072060089,102.40317343047305,-2.240466044529003,808.3281840747401
1701072060103,103.05967093047305,-2.293393864529003,809.1558046747401
1701072060117,103.73210363047303,-2.293280814029003,809.9889368747401
1701072060131,104.42218423047304,-2.227119774029003,810.8279126747401
1701072060145,105.12437273047306,-2.123682574029003,811.6718919747401
1701072060159,105.82722763047306,-2.013873174029003,812.5157153747401
1701072060172,106.52307653047306,-1.920068054029003,813.3548379747401
1701072060186,107.20743573047308,-1.8505869040290028,814.1875529747401
1701072060201,107.87793563047306,-1.8034614140290028,815.0108662747401
1701072060214,108.53362623047306,-1.768056194029003,815.8222440747401
1701072060228,109.17561913047308,-1.731998644029003,816.6210179747401
1701072060242,109.80599143047309,-1.685683284029003,817.4095133747401
1701072060257,110.42627333047308,-1.621211554029003,818.18876267474
1701072060270,111.03861403047308,-1.532740814029003,818.95945697474
1701072060284,111.64535013047308,-1.4142573140290031,819.72234707474
1701072060298,112.24829913047309,-1.2699032140290032,820.47575227474
1701072060311,112.84638223047308,-1.1138178140290032,821.21878587474
1701072060325,113.43998513047306,-0.9591444140290032,821.95265887474
1701072060339,114.03160333047306,-0.8129681140290032,822.67932817474
1701072060354,114.62525783047306,-0.6778973140290032,823.40067097474
1701072060367,115.22500993047306,-0.5561282140290033,824.11842147474
1701072060381,115.83275763047308,-0.4507833140290032,824.83405827474
1701072060396,116.44863583047308,-0.3674119040290032,825.54899867474
1701072060409,117.07274263047309,-0.3104662640290032,826.26389087474
1701072060424,117.70686693047308,-0.2827935840290032,826.97983257474
1701072060437,118.35226103047307,-0.2806601970290032,827.69781497474
1701072060450,119.01000423047309,-0.3013860870290032,828.4187450747401
1701072060464,119.68058743047308,-0.3450569770290033,829.14329927474
1701072060479,120.36344933047307,-0.4136079570290032,829.87140007474
1701072060492,121.05808033047308,-0.5067988970290033,830.60363377474
1701072060506,121.76277003047308,-0.6174534970290033,831.34086767474
1701072060521,122.47652603047308,-0.7387104970290033,832.08407387474
1701072060534,123.19828983047309,-0.8667132970290032,832.83401637474
1701072060547,123.92790783047307,-1.0013464970290031,833.5904118747401
1701072060561,124.66554383047308,-1.1420844970290032,834.35294257474
1701072060575,125.41088943047308,-1.285747197029003,835.12161877474
1701072060590,126.16408933047308,-1.427686497029003,835.89716947474
1701072060603,126.92393373047308,-1.564647597029003,836.6800324747401
1701072060618,127.69005013047308,-1.694915497029003,837.47110217474
1701072060631,128.46219413047308,-1.818092397029003,838.2713716747401
1701072060645,129.23993113047308,-1.935595997029003,839.07947337474
1701072060659,130.0230015304731,-2.048455197029003,839.8942172747401
1701072060674,130.8102954304731,-2.157980297029003,840.71434057474
1701072060687,131.6019605304731,-2.262313497029003,841.5385126747401
1701072060701,132.3985788304731,-2.354890027029003,842.3649603747401
1701072060714,133.2048304304731,-2.416356167029003,843.1938724747401
1701072060728,134.0270543304731,-2.422094187029003,844.0276947747401
1701072060742,134.8680890304731,-2.366978107029003,844.8657353747401
1701072060758,135.7185009304731,-2.2878869970290032,845.7010279747401
1701072060770,136.5678150304731,-2.220662737029003,846.5253055747401
1701072060783,137.4136127304731,-2.176703437029003,847.33452727474
1701072060796,138.25883743047308,-2.146830837029003,848.12463497474
1701072060810,139.10481553047308,-2.109320747029003,848.8924479747401
1701072060825,139.95656843047308,-2.048136147029003,849.6376769747401
1701072060839,140.81423213047307,-1.962709537029003,850.3560090747401
1701072060854,141.67458613047307,-1.8647167770290032,851.0458921747401
1701072060866,142.5336569304731,-1.7586282770290032,851.7064253747401
1701072060879,143.38936933047307,-1.6377956770290032,852.3405176747401
1701072060894,144.24243653047307,-1.4934795770290032,852.9532130747401
1701072060908,145.09364663047307,-1.3277965770290032,853.5497048747401
1701072060922,145.94198623047308,-1.1529798770290032,854.1322286747401
1701072060937,146.78802083047307,-0.9824862770290032,854.7042981747401
1701072060950,147.63316023047307,-0.8245271770290031,855.26889247474
1701072060963,148.47887703047306,-0.6862421770290031,855.82771947474
1701072060978,149.32690313047306,-0.5712854770290031,856.3829593747399
1701072060992,150.17847753047306,-0.4819618370290031,856.9356208747399
1701072061005,151.03451583047303,-0.4208483870290031,857.4862861747399
1701072061019,151.89627623047306,-0.3874383370290031,858.03632427474
1701072061033,152.76524053047305,-0.3805327920290031,858.58633297474
1701072061047,153.64329713047306,-0.3985425320290031,859.13597347474
1701072061061,154.53058763047306,-0.4381485420290031,859.68516637474
1701072061076,155.42785603047307,-0.4965063320290031,860.23424737474
1701072061090,156.33675723047307,-0.5716007220290031,860.78324927474
1701072061103,157.25756073047307,-0.6584629120290031,861.33200707474
1701072061116,158.19059603047307,-0.754770492029003,861.87923347474
1701072061130,159.13590283047307,-0.860614592029003,862.42347647474
1701072061145,160.09318963047306,-0.9755345920290032,862.96399557474
1701072061158,161.06228473047307,-1.097114992029003,863.5005395747401
1701072061173,162.04209343047307,-1.2222903920290031,864.03366637474
1701072061186,163.03279473047309,-1.3490531920290032,864.56367667474
1701072061200,164.03430773047307,-1.4760703920290033,865.08952177474
1701072061214,165.04495873047307,-1.6030124920290032,865.60986617474
1701072061228,166.06234073047307,-1.7311538920290033,866.12454967474
1701072061242,167.08395073047308,-1.8609962920290035,866.63424887474
1701072061256,168.10870273047308,-1.9884969920290032,867.13948337474
1701072061269,169.1350847304731,-2.108442692029003,867.6390415747401
1701072061283,170.1608997304731,-2.215586592029003,868.13245677474
1701072061297,171.18948473047308,-2.286088842029004,868.6235800747401
1701072061311,172.22673573047308,-2.2851026301290034,869.1157678747401
1701072061325,173.27184673047307,-2.2289038501290035,869.6124262747401
1701072061339,174.31308873047308,-2.1584591801290034,870.1140729747401
1701072061354,175.34274073047308,-2.102447730129003,870.6178345747401
1701072061367,176.36233873047308,-2.065435570129003,871.12337307474
1701072061380,177.36897073047308,-2.036248870129003,871.62904487474
1701072061394,178.36193873047307,-1.9967473201290031,872.13875357474
1701072061409,179.33865663047308,-1.9347975001290032,872.65454537474
1701072061423,180.2964931304731,-1.8498385401290032,873.17958547474
1701072061436,181.2354739304731,-1.7477086401290032,873.71380237474
1701072061450,182.1564786304731,-1.6246185401290032,874.25604447474
1701072061465,183.0639786304731,-1.470196840129003,874.80528587474
1701072061478,183.9620640304731,-1.2817106401290033,875.35871627474
1701072061492,184.8515140304731,-1.0770956401290033,875.91320777474
1701072061506,185.7313331304731,-0.8753885401290032,876.4675583747401
1701072061520,186.6034937304731,-0.6886220401290033,877.0224810747401
1701072061534,187.4710733304731,-0.5223006401290033,877.5782223747401
1701072061548,188.3374621304731,-0.3783966401290033,878.1343484747401
1701072061562,189.2053079304731,-0.2595544401290033,878.6913794747402
1701072061575,190.07557213047312,-0.1692809301290033,879.2497928747401
1701072061589,190.9494239304732,-0.1117660301290033,879.8099212747402
1701072061603,191.82806923047312,-0.0853530801290032,880.3717137747402
1701072061617,192.71220393047312,-0.0866408501290032,880.9350601747402
1701072061631,193.6026879304731,-0.1145165501290032,881.4994556747403
1701072061645,194.4984801304731,-0.1675967301290032,882.0656518747403
1701072061658,195.3993998304731,-0.2453576901290032,882.6350343747403
1701072061673,196.3051786304731,-0.3444102801290032,883.2081885747402
1701072061687,197.21439183047312,-0.4606381801290032,883.7861838747402
1701072061700,198.1253259304731,-0.5874622801290033,884.3705681747402
1701072061714,199.03702853047312,-0.7210178801290033,884.9627735747403
1701072061730,199.95051233047312,-0.8575352801290033,885.5617161747402
1701072061742,200.86678853047312,-0.9929100801290032,886.1662470747402
1701072061756,201.78502023047312,-1.1243226801290032,886.7782769747403
1701072061769,202.7048959304732,-1.2495801801290032,887.4000132747402
1701072061783,203.6265955304732,-1.368098580129003,888.0306402747402
1701072061797,204.55154723047315,-1.480505180129003,888.6663605747402
1701072061811,205.48030783047315,-1.5884846801290031,889.3036007747402
1701072061826,206.4133454304732,-1.691028580129003,889.9411843747401
1701072061839,207.3489798304732,-1.785941940129003,890.5788678747401
1701072061852,208.28468413047315,-1.873172450129003,891.2160529747401
1701072061866,209.2177651304732,-1.953728940129003,891.8503949747401
1701072061882,210.1512918304732,-2.005465350129003,892.4815612747401
1701072061895,211.09153183047312,-1.9889025901290032,893.1085696747401
1701072061909,212.03879273047312,-1.9264119501290031,893.7318446747402
1701072061923,212.9880938304732,-1.861301450129003,894.3494628747402
1701072061937,213.9361527304732,-1.812844340129003,894.9580440747402
1701072061950,214.8865973304732,-1.768621030129003,895.5593704747401
1701072061965,215.8383857304732,-1.700140870129003,896.1512892747402
1701072061977,216.79074783047312,-1.590384270129003,896.7317758747402
1701072061993,217.74137483047312,-1.450901670129003,897.2964691747402
1701072062006,218.6856228304731,-1.2980217701290029,897.8397873747402
1701072062020,219.6213342304731,-1.1384568701290028,898.3635438747402
1701072062033,220.5473795304731,-0.9684737701290028,898.8683501747403
1701072062047,221.46709713047312,-0.7801136701290027,899.3559432747403
1701072062061,222.3842227304731,-0.5735927701290027,899.8309646747402
1701072062075,223.29961653047312,-0.3625454701290027,900.2976621747403
1701072062091,224.21299683047312,-0.1648384701290026,900.7581061747404
1701072062103,225.1263408304731,0.0074359298709973,901.2147257747404
1701072062117,226.04135103047312,0.1489955298709973,901.6694011747404
1701072062131,226.9588660304732,0.2565499298709973,902.1243706747402
1701072062144,227.8798543304732,0.3303906798709973,902.5813231747404
1701072062159,228.80468283047315,0.3682317998709973,903.0410017747404
1701072062172,229.7334054304731,0.3664710278709973,903.5039046747404
1701072062186,230.66564933047312,0.3283534678709973,903.9705574747404
1701072062201,231.60170533047312,0.2594208478709973,904.4416387747405
1701072062214,232.54230763047312,0.1673789278709973,904.9176656747404
1701072062229,233.4889096304732,0.0581392278709973,905.3990634747404
1701072062242,234.44243733047315,-0.0620952721290026,905.8850807747402
1701072062256,235.40350993047312,-0.1906013721290026,906.3743807747402
1701072062270,236.3715358304731,-0.3259457721290026,906.86636357474
1701072062284,237.3447104304731,-0.4670611721290026,907.36075747474
1701072062298,238.3221207304731,-0.6140585721290026,907.85675607474
1701072062311,239.3040596304731,-0.7647638721290027,908.35360087474
1701072062325,240.29149823047308,-0.9148672721290028,908.85123037474
1701072062339,241.28447583047307,-1.060966172129003,909.3495400747402
1701072062354,242.28278313047304,-1.2026258721290026,909.8480318747402
1701072062367,243.28463413047305,-1.3401903721290027,910.3467922747402
1701072062381,244.28822413047305,-1.4748111721290027,910.8457295747402
1701072062395,245.29237613047303,-1.6053626721290026,911.3443914747402
1701072062409,246.29711813047305,-1.7299532721290023,911.8410394747402
1701072062422,247.30131113047304,-1.8464410721290023,912.3336440747404
1701072062436,248.30246513047305,-1.9545381721290025,912.8192848747404
1701072062450,249.29660753047304,-2.0535033721290024,913.2980955747404
1701072062464,250.28453543047303,-2.1229311721290025,913.7757268747404
1701072062477,251.27185423047305,-2.1236552363290024,914.2572029747404
1701072062491,252.259399630473,-2.0630113263290024,914.7449045747404
1701072062506,253.241188130473,-1.9806799163290023,915.2391175747404
1701072062520,254.210887430473,-1.9032160463290024,915.7360938747404
1701072062533,255.169095830473,-1.8384324163290025,916.2369385747404
1701072062547,256.114244730473,-1.7817908463290022,916.7410241747403
1701072062561,257.043977230473,-1.7261706563290022,917.2486350747404
1701072062575,257.957037530473,-1.6635344963290022,917.7603403747404
1701072062588,258.85072323047297,-1.5908736663290022,918.2782408747404
1701072062602,259.72295773047296,-1.5069680463290025,918.8063133747404
1701072062616,260.57457913047296,-1.4113329863290025,919.3456057747404
1701072062630,261.4080861304729,-1.2990554863290025,919.8956418747406
1701072062644,262.22845633047297,-1.1636469863290022,920.4543775747406
1701072062658,263.040290230473,-1.0110942863290022,921.0186186747408
1701072062672,263.844779130473,-0.8540421863290022,921.5859333747406
1701072062685,264.643248530473,-0.7036834863290022,922.1546532747408
1701072062699,265.436762030473,-0.5656729863290022,922.7243582747408
1701072062713,266.226156630473,-0.4419359863290022,923.2946210747408
1701072062727,267.01264673047297,-0.3338747863290022,923.8651968747408
1701072062741,267.79723753047296,-0.2448730263290022,924.4361247747408
1701072062756,268.5793301304729,-0.1795716463290022,925.0075604747408
1701072062768,269.35871013047296,-0.1401032963290022,925.5795942747408
1701072062782,270.13597003047295,-0.1251529563290022,926.1523415747408
1701072062796,270.91255963047297,-0.1314866043290022,926.7261931747408
1701072062810,271.68950483047297,-0.1561087043290022,927.3026556747408
1701072062824,272.46742333047297,-0.1991755743290022,927.8833791747408
1701072062838,273.246801330473,-0.2595244243290022,928.4696352747408
1701072062852,274.02798353047297,-0.3363921243290022,929.0621830747408
1701072062866,274.81021463047296,-0.4266634043290022,929.6626006747408
1701072062879,275.592667830473,-0.5280025043290022,930.2729658747407
1701072062894,276.375156130473,-0.6381523043290022,930.8936764747408
1701072062907,277.157748830473,-0.7573482043290022,931.5248841747408
1701072062921,277.939934530473,-0.8864939043290022,932.1666860747408
1701072062935,278.721531830473,-1.0245103043290025,932.8204737747408
1701072062949,279.503011330473,-1.166555904329002,933.486788774741
1701072062963,280.28436413047297,-1.308145204329002,934.166520574741
1701072062977,281.06658083047296,-1.4467563043290022,934.8595444747408
1701072062999,281.85007343047295,-1.5793073043290022,935.5662272747408
1701072063005,282.6352921304729,-1.7040026043290022,936.2856348747408
1701072063016,283.4224822304729,-1.8194110043290024,937.0152263747408
1701072063031,284.2116525304729,-1.922364104329002,937.7555187747408
1701072063044,285.0011397304729,-2.014594214329002,938.5055707747408
1701072063059,285.7878262304729,-2.0962184043290017,939.2633473747408
1701072063073,286.5723233304729,-2.154833314329002,940.0283566747408
1701072063087,287.3600713304729,-2.1538174393290017,940.8016992747408
1701072063101,288.1565210304729,-2.080924239329001,941.5814595747408
1701072063114,288.9619276304729,-1.9594117393290016,942.3666171747408
1701072063128,289.7722562304729,-1.8164787393290016,943.1518126747408
1701072063142,290.5833386304729,-1.6813336393290017,943.9327399747408
1701072063156,291.3908896304729,-1.5710908393290015,944.7069427747408
1701072063170,292.1939235304729,-1.4834638293290017,945.473990174741
1701072063184,292.9936067304729,-1.4005714593290015,946.233956674741
1701072063198,293.7902157304729,-1.3046842593290018,946.987138174741
1701072063212,294.5838967304729,-1.1918519593290018,947.7338618747408
1701072063226,295.3726124304729,-1.0696420593290017,948.4731874747408
1701072063239,296.1527521304729,-0.9478884593290016,949.2047741747408
1701072063254,296.9204671304729,-0.8285254593290017,949.9288762747408
1701072063267,297.6758883304729,-0.7036672593290016,950.6478443747408
1701072063281,298.4200038304729,-0.5702576593290016,951.3626823747408
1701072063297,299.1521310304729,-0.4358802593290016,952.0745607747408
1701072063309,299.8707573304729,-0.3114446593290016,952.7840719747408
1701072063330,300.5756365304729,-0.2052285593290017,953.4930578747408
1701072063334,301.2700733304729,-0.1174541093290016,954.2037286747408
1701072063347,301.9542902304729,-0.0520234693290016,954.9175364747408
1701072063361,302.62928573047293,-0.0128835793290016,955.636453074741
1701072063376,303.29681353047295,-0.0016875493290016,956.361900274741
1701072063391,303.9588704304729,-0.0178391293290016,957.095496574741
1701072063405,304.61732423047295,-0.0574034993290017,957.837885574741
1701072063418,305.27396843047296,-0.1161814493290017,958.588758874741
1701072063432,305.93059223047294,-0.1918257593290017,959.347296574741
1701072063446,306.58823903047295,-0.2808252293290016,960.111718874741
1701072063461,307.24738663047293,-0.3825389293290017,960.881573774741
1701072063474,307.9077165304729,-0.4956376293290017,961.656392874741
1701072063488,308.56990543047294,-0.6181155293290017,962.435576474741
1701072063502,309.23514663047297,-0.7467813293290018,963.2185805747408
1701072063516,309.9050519304729,-0.8783011293290017,964.005049874741
1701072063530,310.58178403047293,-1.0098220293290017,964.794714574741
1701072063544,311.26673903047293,-1.1395102293290016,965.5868279747408
1701072063558,311.9599038304729,-1.2655009293290016,966.381040574741
1701072063571,312.6603191304729,-1.3885672293290017,967.1764316747408
1701072063585,313.3672057304729,-1.5123821293290016,967.9718077747408
1701072063599,314.0783997304729,-1.6389220293290017,968.766364474741
1701072063613,314.7929531304729,-1.7658574293290017,969.560048674741
1701072063627,315.50947383047287,-1.8884749293290013,970.352855974741
1701072063641,316.2246256304729,-2.0049803293290016,971.143995374741
1701072063655,316.9346293304729,-2.1114526293290017,971.933506374741
1701072063669,317.6384331304729,-2.182991089329002,972.725976074741
1701072063683,318.3386483304729,-2.189332976329002,973.527370974741
1701072063697,319.0364002304729,-2.137814856329002,974.340662474741
1701072063711,319.7283248304729,-2.0668655063290022,975.1576992747408
1701072063725,320.4116415304729,-2.0056351663290024,975.9684571747408
1701072063738,321.08238063047287,-1.9658382663290024,976.7714148747408
1701072063753,321.73375423047287,-1.9438398463290023,977.5643748747408
1701072063767,322.36494133047285,-1.9232492763290023,978.3513343747408
1701072063781,322.9767631304728,-1.8868477763290024,979.1343360747408
1701072063795,323.5711842304728,-1.8241129663290023,979.9181119747408
1701072063808,324.1481178304728,-1.7352537763290024,980.7033922747408
1701072063822,324.7071113304728,-1.6261700763290023,981.4878003747408
1701072063836,325.2491922304728,-1.5007111763290024,982.2692235747407
1701072063849,325.7772928304728,-1.3627900763290024,983.0464523747409
1701072063864,326.2920577304728,-1.2181503763290025,983.8184970747408
1701072063877,326.7947393304728,-1.0744637763290026,984.5843230747408
1701072063891,327.2881998304728,-0.9375627763290026,985.3441352747408
1701072063906,327.7755933304728,-0.8093081763290026,986.0997247747408
1701072063919,328.2587823304728,-0.6922537763290026,986.8530295747408
1701072063933,328.7396257304728,-0.5900335763290027,987.6052455747408
1701072063947,329.2188346304728,-0.5075161863290026,988.3573531747408
1701072063961,329.69719743047284,-0.4479971063290026,989.1100273747408
1701072063976,330.1756382304728,-0.4144529263290026,989.8640752747408
1701072063989,330.6534604304728,-0.4064980603290026,990.6198089747407
1701072064002,331.1297162304728,-0.4232919903290026,991.3782201747408
1701072064017,331.6036955304728,-0.4635995403290026,992.1402414747408
1701072064030,332.0756457304728,-0.5247361403290026,992.9066036747408
1701072064044,332.5469216304728,-0.6032432803290027,993.6780522747408
1701072064058,333.0177919304728,-0.6972181203290027,994.4549908747408
1701072064072,333.4861530304728,-0.8048339203290027,995.2366570747408
1701072064087,333.9501787304728,-0.9241847203290028,996.0217663747408
1701072064101,334.40830693047275,-1.0544844203290027,996.8091266747408
1701072064114,334.86028193047275,-1.1939743203290027,997.5985244747408
1701072064128,335.3047671304727,-1.3386112203290028,998.3914276747408
1701072064141,335.7405897304727,-1.4846315203290028,999.1890796747408
1701072064156,336.1664848304727,-1.6316882203290028,999.9916107747408
1701072064169,336.5819150304727,-1.780817220329003,1000.7983656747408
1701072064184,336.9877775304727,-1.9305986203290029,1001.6098417747407
1701072064198,337.3845636304727,-2.076464620329003,1002.4273614747408
1701072064212,337.7730591304727,-2.214168820329003,1003.2513212747408
1701072064225,338.1533026304727,-2.341787120329003,1004.081401974741
1701072064239,338.5269993304727,-2.455200820329003,1004.9158628747408
1701072064253,338.89757863047265,-2.534693620329003,1005.7570046747408
1701072064266,339.2699268304726,-2.553559870329003,1006.6091051747408
1701072064280,339.64550433047265,-2.522681540329003,1007.4708767747408
1701072064295,340.0246957304727,-2.456264170329003,1008.3383313747408
1701072064308,340.4082753304727,-2.372630960329003,1009.2036815747408
1701072064322,340.79707293047267,-2.285696360329003,1010.0609927747408
1701072064337,341.18944763047267,-2.204753220329003,1010.9048218747408
1701072064350,341.5830965304727,-2.1373648303290027,1011.7308066747408
1701072064364,341.9788859304727,-2.0747000103290025,1012.5395389747408
1701072064378,342.3787843304727,-1.9983067703290025,1013.3327231747407
1701072064392,342.78317233047267,-1.8968855703290024,1014.1122741747408
1701072064406,343.1886341304727,-1.7797007703290024,1014.8783071747408
1701072064420,343.5909851304727,-1.6583659703290023,1015.6270648747408
1701072064434,343.9884619304727,-1.5342167703290024,1016.3597917747408
1701072064448,344.3801028304727,-1.4021027703290023,1017.0778090747408
1701072064462,344.76568393047273,-1.2590850703290024,1017.7839288747408
1701072064476,345.1443779304728,-1.1102310703290024,1018.4789551747408
1701072064490,345.51742233047275,-0.9627996703290024,1019.1654337747408
1701072064503,345.88605433047275,-0.8215520703290023,1019.845220374741
1701072064517,346.2511087304728,-0.6904480703290024,1020.5195155747408
1701072064531,346.6128141304728,-0.5732724703290023,1021.1893397747408
1701072064545,346.9703078304728,-0.4725481703290023,1021.8549863747407
1701072064560,347.3225938304728,-0.3905632003290023,1022.5170331747408
1701072064574,347.6705615304728,-0.3263046603290023,1023.1768298747407
1701072064587,348.0153763304728,-0.2780922703290023,1023.8354671747408
1701072064600,348.35798123047283,-0.2454561503290023,1024.494011974741
1701072064614,348.6987589304728,-0.2269966303290023,1025.153244974741
1701072064628,349.0380144304728,-0.2220755413290023,1025.813347474741
1701072064642,349.3756820304728,-0.2313984083290023,1026.473399574741
1701072064656,349.7113878304728,-0.2551932683290023,1027.132828474741
1701072064669,350.0452721304728,-0.2929818783290023,1027.791688474741
1701072064684,350.37847283047284,-0.3406267283290023,1028.451262074741
1701072064698,350.71231713047285,-0.3946225283290023,1029.112742174741
1701072064712,351.0475539304729,-0.4536088783290024,1029.776671774741
1701072064726,351.3847146304729,-0.5188817683290023,1030.442371974741
1701072064739,351.7235818304729,-0.5919804183290024,1031.1083288747411
1701072064754,352.06389963047286,-0.6733727483290024,1031.773144874741
1701072064767,352.40606833047286,-0.7598118683290024,1032.436295874741
1701072064781,352.75152153047287,-0.8452128283290024,1033.098995974741
1701072064795,353.10173673047285,-0.9241010983290024,1033.761980474741
1701072064809,353.45770293047286,-0.9923772383290024,1034.427098874741
