time,rotate_x,rotate_y,rotate_z,angularVelocity_x,angularVelocity_y,angularVelocity_z,velocity_x,velocity_y,velocity_z,acceleration_x,acceleration_y,acceleration_z,position_x,position_y,position_z
2023-11-27 08:00:40.653000192,-0.1433773,-0.007827073,-0.01769728,-0.04283104,-0.006251429,0.02055368,0.009874486,-0.001859402,0.0001925894,0.009874486,-0.001859402,0.0001925894,-0.03010268,1.691017,-0.03809101
2023-11-27 08:00:40.668000000,-0.1403154,-0.003750503,-0.01919908,-0.03699162,-0.0253251,0.03517725,0.01135139,-0.00262862,0.006566845,0.0212258759999999,-0.0044880219999999,0.0067594344,-0.02791012,0.0234825,-0.03689273
2023-11-27 08:00:40.681999872,-0.1399737,-0.003686756,-0.01925089,-0.03654329,-0.02084797,0.03089101,0.0106092,-0.002136583,0.00671554,0.031835076,-0.0066246049999999,0.0134749743999999,-0.02780979,0.02350425,-0.03678698
2023-11-27 08:00:40.704000000,-0.1399176,-0.003875911,-0.01911314,-0.03117008,-0.01052342,0.01999711,0.009639051,-0.002018022,0.00708794,0.041474127,-0.008642627,0.0205629144,-0.02772205,0.02354075,-0.03669088
2023-11-27 08:00:40.720000000,-0.1400962,-0.004000068,-0.01879548,-0.0270817,-0.005179285,0.005810254,0.009138862,-0.001754578,0.007332851,0.050612989,-0.010397205,0.0278957654,-0.02761897,0.02353848,-0.03658804
2023-11-27 08:00:40.740000000,-0.1398637,-0.004089981,-0.01941035,-0.02359033,0.002457849,0.01186157,0.008475335,-0.001351918,0.007725419,0.059088324,-0.011749123,0.0356211844,-0.02753688,0.02358122,-0.03647013
2023-11-27 08:00:40.756000000,-0.1397635,-0.003900349,-0.01943834,-0.02156207,0.005368966,0.02111803,0.008175087,-0.0006777626,0.008035547,0.067263411,-0.0124268856,0.0436567313999999,-0.02743823,0.0235839,-0.03633769
2023-11-27 08:00:40.772999936,-0.1396669,-0.004056007,-0.01943803,-0.01828212,0.004007803,0.01600694,0.00822152,-0.0006824951,0.008262124,0.0754849309999999,-0.0131093807,0.0519188553999999,-0.02732555,0.0235293,-0.03623264
2023-11-27 08:00:40.789999872,-0.1393958,-0.004187763,-0.01940126,-0.02440887,0.003910523,0.008238891,0.008108443,-0.0007641839,0.008185249,0.083593374,-0.0138735645999999,0.0601041043999999,-0.02722069,0.02349592,-0.03613293
2023-11-27 08:00:40.806999808,-0.1393713,-0.00417909,-0.01919211,-0.02530826,0.002401125,0.0009005844,0.007852346,-0.0008773928,0.00798506,0.09144572,-0.0147509573999999,0.0680891643999999,-0.02712441,0.02346383,-0.03602683
2023-11-27 08:00:40.823000064,-0.1392466,-0.00421226,-0.01916685,-0.01555499,0.003146041,-0.002321927,0.007738966,-0.0003962452,0.007948251,0.099184686,-0.0151472026,0.0760374153999999,-0.02701147,0.02351043,-0.03591826
2023-11-27 08:00:40.839000064,-0.1393238,-0.004332125,-0.01931,-0.006785973,0.008864659,0.002104272,0.007704979,0.0003135589,0.008060084,0.106889665,-0.0148336437,0.0840974993999999,-0.02689434,0.02360377,-0.03581106
2023-11-27 08:00:40.855000064,-0.1393923,-0.004372984,-0.01936234,-0.001507989,0.008715685,0.003345008,0.007516331,0.0005239942,0.007936087,0.114405996,-0.0143096494999999,0.0920335863999999,-0.02679583,0.02364336,-0.03570674
2023-11-27 08:00:40.869999872,-0.1393644,-0.004433304,-0.01932324,-0.002480423,0.008109099,0.0001682084,0.007375433,0.0001028102,0.007754276,0.121781429,-0.0142068393,0.0997878623999999,-0.02672014,0.02361776,-0.03562139
2023-11-27 08:00:40.884999936,-0.1392106,-0.004443973,-0.01923256,-0.008988776,0.004545645,-0.003584182,0.006780661,-0.0004493389,0.007336272,0.12856209,-0.0146561782,0.1071241343999999,-0.02671244,0.02355271,-0.03557903
2023-11-27 08:00:40.900000000,-0.1390366,-0.00456357,-0.01930712,-0.01403909,0.009744014,-0.001534909,0.006627515,-0.001031692,0.007135248,0.135189605,-0.0156878702,0.1142593823999999,-0.02668336,0.02349257,-0.03553591
2023-11-27 08:00:40.915000064,-0.1389351,-0.004544705,-0.01932717,-0.01430517,0.006849953,0.0001696,0.006551628,-0.0009491615,0.006943855,0.141741233,-0.0166370317,0.1212032373999999,-0.02659459,0.0234828,-0.03544462
2023-11-27 08:00:40.930000128,-0.1389231,-0.004505605,-0.01935783,-0.0103305,0.003657392,0.002034101,0.006471147,-0.0006114827,0.006866545,0.14821238,-0.0172485143999999,0.1280697823999999,-0.02650866,0.0234856,-0.03534831
2023-11-27 08:00:40.944999936,-0.1389648,-0.004434288,-0.01931847,-0.005303328,-0.001316195,0.001025657,0.006308046,-0.0002397767,0.006705231,0.154520426,-0.0174882910999999,0.1347750133999999,-0.02642833,0.0234893,-0.03525342
2023-11-27 08:00:40.959000064,-0.1390372,-0.004414439,-0.01919065,-3.175751e-05,-0.005084707,-0.00459598,0.00628077,2.406619e-05,0.006439181,0.160801196,-0.0174642249099999,0.1412141943999999,-0.02630163,0.02346775,-0.03515147
2023-11-27 08:00:40.973999872,-0.1390886,-0.004367679,-0.0191159,0.003037118,-0.007829892,-0.006124557,0.006139939,0.0003410713,0.006311762,0.166941135,-0.0171231536099999,0.1475259563999999,-0.0261771,0.02345582,-0.03504576
2023-11-27 08:00:40.988000000,-0.1391733,-0.004359722,-0.01904936,0.006298795,-0.007013011,-0.006222702,0.006018345,0.0007630277,0.006262927,0.17295948,-0.01636012591,0.1537888833999999,-0.0260787,0.0234655,-0.03495404
2023-11-27 08:00:41.002000128,-0.1393287,-0.004336357,-0.01894055,0.01164913,-0.007826807,-0.008109444,0.00567208,0.0009201028,0.006320055,0.17863156,-0.01544002311,0.1601089383999999,-0.02601343,0.02347518,-0.03486208
2023-11-27 08:00:41.016999936,-0.1393994,-0.004340738,-0.01882918,0.01073901,-0.007184248,-0.01045274,0.005127926,0.0008830269,0.006465436,0.183759486,-0.01455699621,0.1665743743999999,-0.02600726,0.02345237,-0.03477548
2023-11-27 08:00:41.029999872,-0.1394906,-0.00441879,-0.01884663,0.01111877,-5.953338e-05,-0.007598851,0.00441828,-0.0001834627,0.006677993,0.188177766,-0.0147404589099999,0.1732523673999999,-0.02615111,0.02332707,-0.03471178
2023-11-27 08:00:41.045000192,-0.1394327,-0.004459143,-0.01884033,0.003806497,0.002976418,-0.00623117,0.00342167,-0.001037606,0.006737099,0.191599436,-0.01577806491,0.1799894663999999,-0.02631894,0.02319449,-0.03464629
2023-11-27 08:00:41.058000128,-0.1393464,-0.004499942,-0.01890016,-0.001511815,0.005274133,-0.00247584,0.003113771,-0.001641689,0.006962744,0.194713207,-0.01741975391,0.1869522103999999,-0.02629812,0.02315246,-0.03454965
2023-11-27 08:00:41.072000000,-0.1392943,-0.004594684,-0.01889733,-0.002310339,0.00824106,-0.004220206,0.003008108,-0.001838568,0.007466347,0.197721315,-0.01925832191,0.1944185573999999,-0.02626037,0.0231226,-0.03443968
2023-11-27 08:00:41.085999872,-0.1392028,-0.004675865,-0.01885878,-0.005371895,0.009066214,-0.006641848,0.002747813,-0.001539793,0.008068025,0.200469128,-0.02079811491,0.2024865823999999,-0.02620658,0.02311357,-0.03431715
2023-11-27 08:00:41.099000064,-0.1392292,-0.004770696,-0.01875614,-0.002066109,0.007732806,-0.01173977,0.002458769,-0.001198905,0.008535402,0.202927897,-0.02199701991,0.2110219843999999,-0.02609347,0.0231239,-0.03419196
2023-11-27 08:00:41.114000128,-0.1393178,-0.004913151,-0.01867362,0.003471317,0.008778714,-0.01510725,0.002333413,-0.001210136,0.008917049,0.20526131,-0.02320715591,0.2199390333999999,-0.02597782,0.02312609,-0.03406606
2023-11-27 08:00:41.128000000,-0.1392469,-0.005084276,-0.01848396,0.001583586,0.01033635,-0.01875852,0.001994723,-0.001092142,0.009007653,0.207256033,-0.02429929791,0.2289466863999999,-0.02594799,0.02310364,-0.03394653
2023-11-27 08:00:41.141999872,-0.1391475,-0.005209208,-0.01848564,-0.0002711822,0.01337975,-0.02054123,0.001852148,-0.001211599,0.008967696,0.209108181,-0.02551089691,0.2379143823999999,-0.025924,0.02308309,-0.03383109
2023-11-27 08:00:41.156000000,-0.1393144,-0.005491912,-0.01837472,1.619044e-05,0.01795004,-0.01933065,0.001709639,-0.001856379,0.008709734,0.21081782,-0.02736727591,0.2466241163999999,-0.02596472,0.02293992,-0.03379038
2023-11-27 08:00:41.168999936,-0.1391741,-0.005579174,-0.01827171,-0.002061831,0.01936079,-0.01858423,0.001510669,-0.002354535,0.008116228,0.212328489,-0.02972181091,0.2547403443999999,-0.02602326,0.02277282,-0.03376858
2023-11-27 08:00:41.184000000,-0.1392322,-0.005802393,-0.01839184,-0.00347793,0.01742245,-0.0127587,0.001041969,-0.002512519,0.007654355,0.213370458,-0.03223432991,0.2623946993999999,-0.02606298,0.02266822,-0.03373405
2023-11-27 08:00:41.196999936,-0.13942,-0.005919337,-0.01826705,0.007467931,0.01894689,-0.01715694,0.001248683,-0.002327484,0.00756586,0.214619141,-0.03456181391,0.2699605593999999,-0.02603718,0.02263175,-0.0336395
2023-11-27 08:00:41.211000064,-0.1395373,-0.006155729,-0.01804836,0.01200556,0.01963343,-0.0226369,0.001428706,-0.001809556,0.007809442,0.216047847,-0.03637136991,0.2777700013999999,-0.02601023,0.02260093,-0.03354063
2023-11-27 08:00:41.224000000,-0.1397039,-0.00639382,-0.01814142,0.01626051,0.01935885,-0.02243559,0.00192109,-0.001023302,0.007755549,0.217968937,-0.0373946719099999,0.2855255503999999,-0.02589126,0.02266882,-0.0334607
2023-11-27 08:00:41.239000064,-0.13982,-0.006561339,-0.01828874,0.0225265,0.02132594,-0.01610959,0.002353419,-0.0007126805,0.007483247,0.220322356,-0.0381073524099999,0.2930087973999999,-0.02576545,0.02273344,-0.03338737
2023-11-27 08:00:41.253999872,-0.1398706,-0.006658137,-0.01841855,0.01551988,0.02154195,-0.002168394,0.002261163,-0.000481514,0.006793624,0.222583519,-0.03858886641,0.2998024213999999,-0.0257056,0.02276559,-0.03332084
2023-11-27 08:00:41.266000128,-0.1397481,-0.006743968,-0.01832372,0.007137374,0.02290656,-0.003808274,0.002272038,-0.0003890634,0.006034502,0.224855557,-0.03897792981,0.3058369233999999,-0.02567207,0.02275575,-0.03326046
2023-11-27 08:00:41.280999936,-0.1397596,-0.006984413,-0.01824556,0.002927844,0.02144246,-0.006907397,0.001929042,-0.0003943633,0.00499554,0.226784599,-0.03937229311,0.3108324633999999,-0.02566304,0.02274579,-0.03323127
2023-11-27 08:00:41.293999872,-0.1400048,-0.007254958,-0.01817909,0.009649113,0.02175633,-0.01332543,0.001210417,-0.0005136179,0.00400366,0.227995016,-0.03988591101,0.3148361233999999,-0.02575452,0.02276529,-0.03321019
2023-11-27 08:00:41.308000000,-0.1402485,-0.007500857,-0.01802128,0.02090883,0.02446758,-0.02228574,0.0006930066,8.210575e-05,0.003225065,0.2286880225999999,-0.03980380526,0.3180611884,-0.02584596,0.02280454,-0.03319183
2023-11-27 08:00:41.322000128,-0.1405796,-0.00774917,-0.01787693,0.03495204,0.02350571,-0.02706005,0.0005374977,0.001052482,0.002552595,0.2292255202999999,-0.03875132326,0.3206137833999999,-0.02586055,0.02283708,-0.03318834
2023-11-27 08:00:41.336999936,-0.1411451,-0.008029252,-0.01783935,0.05189464,0.02266038,-0.02518493,0.0005877733,0.002039933,0.001904259,0.2298132936,-0.03671139026,0.3225180424,-0.0258541,0.02288336,-0.03319562
2023-11-27 08:00:41.351000064,-0.1416649,-0.008283764,-0.01784266,0.0618175,0.02723341,-0.02583418,0.0009250023,0.002827494,0.001368574,0.2307382959,-0.03388389626,0.3238866164,-0.02579076,0.02296578,-0.03321217
2023-11-27 08:00:41.364000000,-0.1422237,-0.008621991,-0.01756595,0.06505678,0.02810843,-0.02590651,0.001131414,0.003019616,0.000820025,0.2318697099,-0.0308642802599999,0.3247066414,-0.0256837,0.02304671,-0.03324366
2023-11-27 08:00:41.378000128,-0.142394,-0.008826822,-0.01763964,0.06299072,0.0294833,-0.0251778,0.001468684,0.002928355,0.0001899502,0.2333383939,-0.0279359252599999,0.3248965916,-0.02557241,0.02313932,-0.03327911
2023-11-27 08:00:41.392000000,-0.1428453,-0.009152114,-0.01762868,0.05757917,0.03048336,-0.02232999,0.001698632,0.002783871,-0.0001887612,0.2350370259,-0.0251520542599999,0.3247078304,-0.02554284,0.02316961,-0.03331457
2023-11-27 08:00:41.407000064,-0.1432831,-0.009347558,-0.01762515,0.05729705,0.03061971,-0.01691268,0.002059477,0.002322826,-0.0004759893,0.2370965029,-0.0228292282599999,0.3242318411,-0.02550629,0.0231869,-0.03334184
2023-11-27 08:00:41.420999936,-0.1434379,-0.009610116,-0.01761385,0.05091359,0.03123035,-0.01619118,0.002497031,0.002453507,-0.0006639926,0.2395935339,-0.0203757212599999,0.3235678485,-0.02543676,0.02322901,-0.0333636
2023-11-27 08:00:41.435000064,-0.1436833,-0.00966379,-0.01760117,0.04635653,0.0260427,-0.01630268,0.002523822,0.002549052,-0.0008531095,0.2421173559,-0.0178266692599999,0.322714739,-0.02536805,0.02327552,-0.0333683
2023-11-27 08:00:41.448999936,-0.1441081,-0.009972394,-0.01765097,0.04734011,0.02644618,-0.014156,0.002744293,0.002398137,-0.0007710028,0.2448616489,-0.0154285322599999,0.3219437362,-0.02529671,0.02331147,-0.0333905
2023-11-27 08:00:41.461999872,-0.1444922,-0.01015642,-0.0173571,0.0496631,0.01952625,-0.02451044,0.002492243,0.002611664,-0.0008496317,0.2473538919,-0.0128168682599999,0.3210941045,-0.0252667,0.02333071,-0.03341663
2023-11-27 08:00:41.476000000,-0.1450695,-0.0104588,-0.01701922,0.05733318,0.01918523,-0.02847674,0.002515659,0.002703952,-0.0006132169,0.2498695509,-0.0101129162599999,0.3204808876,-0.02522852,0.02334398,-0.03344009
2023-11-27 08:00:41.490000128,-0.1454137,-0.01071823,-0.01711246,0.05910419,0.01949012,-0.02183959,0.002486003,0.003254824,-0.0004381324,0.2523555539,-0.0068580922599999,0.3200427552,-0.02514179,0.0235076,-0.03344724
2023-11-27 08:00:41.504000000,-0.1457451,-0.01087254,-0.01724855,0.0590402,0.02404372,-0.01634547,0.002899006,0.003751677,-0.0001128023,0.2552545599,-0.0031064152599999,0.3199299529,-0.02503982,0.02368159,-0.03344036
2023-11-27 08:00:41.517999872,-0.146049,-0.01099789,-0.01711134,0.05679969,0.02057028,-0.01781769,0.003147174,0.003860689,-8.312549e-05,0.2584017339,0.00075427374,0.31984682741,-0.02496579,0.02377218,-0.03344522
2023-11-27 08:00:41.532000000,-0.1463067,-0.01133746,-0.01708216,0.05385667,0.02102065,-0.02132667,0.003076222,0.003371046,-0.000211661,0.2614779559,0.00412531974,0.31963516641,-0.0249233,0.0238023,-0.03347343
2023-11-27 08:00:41.546000128,-0.1465001,-0.01154256,-0.01698226,0.04662188,0.02606627,-0.02070802,0.002804745,0.003000302,-0.000295873,0.2642827009,0.00712562174,0.31933929341,-0.02488328,0.02382652,-0.03349318
2023-11-27 08:00:41.560000000,-0.1468237,-0.01197958,-0.01688343,0.04371266,0.02908394,-0.02266897,0.002852292,0.002803265,-0.0003786786,0.2671349929,0.00992888674,0.31896061481,-0.02480891,0.02384591,-0.03351645
2023-11-27 08:00:41.572999936,-0.1471599,-0.01211262,-0.01691639,0.04025666,0.02921129,-0.01850373,0.002882691,0.00288875,-0.0004453463,0.2700176838999999,0.01281763674,0.31851526851,-0.02473314,0.02388432,-0.03352311
2023-11-27 08:00:41.586999808,-0.1472919,-0.01242146,-0.01696606,0.03685777,0.02911035,-0.01532748,0.00288741,0.002788234,-0.0004372023,0.2729050938999999,0.01560587074,0.31807806621,-0.02467936,0.02391811,-0.03354941
2023-11-27 08:00:41.601000192,-0.147532,-0.01263195,-0.01699978,0.03681081,0.0293565,-0.01429252,0.0028309,0.002435034,-0.0004247992,0.2757359939,0.01804090474,0.3176532670100001,-0.02463632,0.02394183,-0.03357337
2023-11-27 08:00:41.615000064,-0.1478291,-0.01277015,-0.01687853,0.03888999,0.02796784,-0.0149486,0.002854777,0.002075122,-0.0002347043,0.2785907708999999,0.02011602674,0.3174185627100001,-0.02458934,0.02398627,-0.03356751
2023-11-27 08:00:41.628999936,-0.1479003,-0.01298004,-0.01690289,0.03234358,0.02648665,-0.01381912,0.003183423,0.002289154,0.0001209513,0.2817741938999999,0.02240518074,0.3175395140100001,-0.02449389,0.02415267,-0.03353217
2023-11-27 08:00:41.642999808,-0.1480893,-0.01311687,-0.01693768,0.03071032,0.02241545,-0.008480458,0.003463599,0.002081535,0.0006042577,0.2852377928999999,0.02448671574,0.3181437717100001,-0.02439807,0.02429767,-0.03348573
2023-11-27 08:00:41.657000192,-0.1481961,-0.01322818,-0.01704329,0.02616564,0.02133922,-0.005157233,0.003949245,0.001463903,0.0008466328,0.2891870378999999,0.02595061874,0.3189904045100001,-0.02433013,0.02432,-0.0334738
2023-11-27 08:00:41.671000064,-0.1481631,-0.0131461,-0.01712766,0.0145938,0.01415654,0.002610508,0.003981018,0.0008980294,0.001030589,0.2931680558999999,0.02684864814,0.3200209935100001,-0.02427272,0.0243258,-0.03345141
2023-11-27 08:00:41.684999936,-0.1481514,-0.0132373,-0.01723882,0.006809252,0.01351348,0.006743405,0.004472528,-4.214409e-06,0.001282699,0.2976405838999999,0.026844433731,0.3213036925100001,-0.02418907,0.02429971,-0.03343236
2023-11-27 08:00:41.698999808,-0.1480905,-0.01314259,-0.01733601,0.0007759684,0.006315885,0.01152465,0.004870725,-0.0009156847,0.001476636,0.3025113088999999,0.025928749031,0.3227803285100001,-0.02409301,0.02425259,-0.03339868
2023-11-27 08:00:41.712000000,-0.1479646,-0.01297209,-0.01744219,-0.006388332,-0.001858184,0.01648813,0.005315457,-0.001438947,0.001583223,0.3078267658999999,0.024489802031,0.3243635515100001,-0.02399088,0.02421123,-0.03336078
2023-11-27 08:00:41.726000128,-0.1478814,-0.01284355,-0.01763821,-0.01011282,-0.007357272,0.01986854,0.006074879,-0.001527049,0.001744097,0.3139016448999999,0.022962753031,0.3261076485100001,-0.02388823,0.02420276,-0.03332503
2023-11-27 08:00:41.740000000,-0.1478205,-0.01251227,-0.01765987,-0.007732878,-0.01603439,0.02549265,0.006245536,-0.001180336,0.001900821,0.3201471808999999,0.021782417031,0.3280084695100001,-0.02379778,0.02419977,-0.03327311
2023-11-27 08:00:41.753999872,-0.1479694,-0.01215702,-0.01765028,0.000412424,-0.02447436,0.02476083,0.006257965,-0.0005703237,0.002173228,0.3264051458999999,0.021212093331,0.3301816975100001,-0.02370843,0.024279,-0.03317987
2023-11-27 08:00:41.768000000,-0.1480785,-0.01188338,-0.01774736,0.004638373,-0.02598993,0.02427105,0.006563044,0.0002749158,0.002580766,0.3329681898999999,0.021487009131,0.3327624635100001,-0.02361033,0.02440954,-0.03306966
2023-11-27 08:00:41.782000128,-0.148072,-0.01163039,-0.01769319,0.006470017,-0.03152508,0.02464914,0.00648679,0.0005471282,0.002786374,0.3394549798999999,0.022034137331,0.3355488375100001,-0.02352381,0.02448031,-0.03298018
2023-11-27 08:00:41.795000064,-0.1480546,-0.01129493,-0.01787291,0.002047163,-0.03180723,0.02669247,0.006564838,0.0002181318,0.002935159,0.3460198178999999,0.022252269131,0.3384839965100001,-0.02343165,0.02448949,-0.03291419
2023-11-27 08:00:41.809999872,-0.1480291,-0.01099905,-0.01801188,-0.001308671,-0.03214212,0.02881048,0.006670618,-0.0005512147,0.003029623,0.3526904359,0.021701054431,0.3415136195100001,-0.02334004,0.02447623,-0.03284946
2023-11-27 08:00:41.824000000,-0.1479312,-0.0106889,-0.01797744,-0.006864296,-0.03597255,0.02949041,0.006460517,-0.0006177499,0.003090802,0.3591509529,0.021083304531,0.3446044215100001,-0.02324875,0.02445542,-0.03276395
2023-11-27 08:00:41.838000128,-0.1480548,-0.010483,-0.01801423,-0.007427281,-0.0328129,0.02428611,0.006418413,-0.0002049209,0.003253499,0.3655693659,0.020878383631,0.3478579205100001,-0.02314978,0.02445076,-0.03268227
2023-11-27 08:00:41.851000064,-0.1481252,-0.01033568,-0.01818894,0.002325523,-0.02742104,0.02669275,0.00583607,-0.0003089461,0.003271988,0.3714054359,0.020569437531,0.3511299085100001,-0.02307583,0.02445159,-0.03262169
2023-11-27 08:00:41.864999936,-0.1480461,-0.01028889,-0.01829258,0.00597509,-0.02014092,0.02611609,0.005113509,-3.598939e-05,0.003354662,0.3765189449,0.020533448141,0.3544845705100001,-0.02302301,0.02446805,-0.03257
2023-11-27 08:00:41.878000128,-0.1481034,-0.01008034,-0.01852305,0.003206385,-0.01660613,0.02179843,0.004019611,0.0002366742,0.003355866,0.3805385559,0.020770122341,0.3578404365100001,-0.02299086,0.02450798,-0.03250751
2023-11-27 08:00:41.892999936,-0.1481594,-0.01006144,-0.01840525,0.005007815,-0.007646579,0.01852032,0.003235006,0.0002260019,0.003612458,0.3837735619,0.020996124241,0.3614528945100001,-0.02294899,0.02459148,-0.03241418
2023-11-27 08:00:41.907000064,-0.148267,-0.01010019,-0.01846531,0.01002418,-0.003538493,0.009997321,0.002382313,0.0006131172,0.003673242,0.3861558749,0.021609241441,0.3651261365100001,-0.02292242,0.02469881,-0.03233139
2023-11-27 08:00:41.920999936,-0.1485769,-0.01035297,-0.01848973,0.02055335,0.004898433,0.002839637,0.001675046,0.001213575,0.003753137,0.3878309209,0.022822816441,0.3688792735100001,-0.02291231,0.02474339,-0.03229038
2023-11-27 08:00:41.935000064,-0.1489802,-0.01051769,-0.0184448,0.03162446,0.008904256,0.0001269597,0.0007411181,0.002275222,0.003575072,0.388572039,0.025098038441,0.3724543455100002,-0.02292365,0.02479449,-0.03225667
2023-11-27 08:00:41.941999872,-0.1491762,-0.01062578,-0.01835315,0.03635621,0.01172829,-0.004784924,0.0004930338,0.002876768,0.003506209,0.3890650728,0.027974806441,0.3759605545100001,-0.02292387,0.02484281,-0.03221637
2023-11-27 08:00:41.954999808,-0.1495728,-0.01074716,-0.01851029,0.04069491,0.01533885,-0.002213413,-0.0002623079,0.00328858,0.003357163,0.3888027649,0.031263386441,0.3793177175100001,-0.02295344,0.02485626,-0.03216795
2023-11-27 08:00:41.969000192,-0.149779,-0.01087049,-0.01842146,0.03985698,0.01850485,-0.003069599,-0.0005115017,0.003493223,0.003150877,0.3882912632,0.034756609441,0.3824685945100001,-0.02297268,0.02484365,-0.03211824
2023-11-27 08:00:41.984000000,-0.1499139,-0.01113805,-0.0184815,0.03990947,0.01823743,-0.004070096,-0.0006790208,0.003010285,0.003211904,0.3876122424000001,0.037766894441,0.3856804985100001,-0.0229862,0.02483944,-0.03208064
2023-11-27 08:00:41.996999936,-0.1502435,-0.01120138,-0.01863642,0.03323146,0.01603806,-0.001629917,-0.0006441153,0.002881278,0.003273072,0.3869681271,0.040648172441,0.3889535705100001,-0.02299299,0.02488487,-0.03204146
2023-11-27 08:00:42.010999808,-0.1503709,-0.01116014,-0.01879299,0.03271079,0.01298498,0.003543436,-0.0004486984,0.002546394,0.003744994,0.3865194287,0.043194566441,0.3926985645100001,-0.02299188,0.024924,-0.03197131
2023-11-27 08:00:42.026000128,-0.1502571,-0.01113144,-0.01909306,0.0243866,0.01252084,0.01651881,-0.0002345629,0.002669758,0.004461657,0.3862848658,0.045864324441,0.3971602215100001,-0.02300724,0.0250521,-0.03181662
2023-11-27 08:00:42.039000064,-0.1503404,-0.01094681,-0.01918295,0.0183232,0.005420539,0.02137998,2.646924e-05,0.002731571,0.005027111,0.38631133504,0.048595895441,0.4021873325100001,-0.023021,0.02516512,-0.03164643
2023-11-27 08:00:42.052999936,-0.1504058,-0.01084965,-0.01915019,0.01272779,-0.00280028,0.0177367,0.0003756286,0.002661693,0.005355795,0.38668696364,0.051257588441,0.4075431275100001,-0.02301037,0.02522315,-0.03153133
2023-11-27 08:00:42.068000000,-0.1504216,-0.01062265,-0.01915777,0.008301721,-0.008766373,0.01466288,0.0004014677,0.001907472,0.005596279,0.38708843134,0.053165060441,0.4131394065100001,-0.02300599,0.02523006,-0.03143022
2023-11-27 08:00:42.081000192,-0.1503448,-0.01026952,-0.01912327,0.0005470671,-0.01216262,0.01627959,0.0005960258,0.0008773947,0.005664608,0.38768445714,0.054042455141,0.4188040145100001,-0.02300203,0.02521,-0.03131733
2023-11-27 08:00:42.095000064,-0.1501669,-0.009899974,-0.01917419,-0.005655779,-0.02288854,0.01989754,0.0004283453,-8.13626e-05,0.005552019,0.38811280244,0.053961092541,0.4243560335100001,-0.02302105,0.02517738,-0.03118769
2023-11-27 08:00:42.108000000,-0.1500888,-0.009449571,-0.01938894,-0.01181669,-0.02943336,0.02686407,0.000219127,-0.0006032016,0.005506244,0.38833192944,0.053357890941,0.4298622775100001,-0.02304659,0.02516177,-0.03105055
2023-11-27 08:00:42.121999872,-0.1500805,-0.009323925,-0.01931526,-0.01194597,-0.03462625,0.02379894,-2.753409e-05,-0.0009613077,0.005593162,0.38830439535,0.052396583241,0.4354554395100001,-0.02305954,0.02513139,-0.03095555
2023-11-27 08:00:42.136000000,-0.1499637,-0.008891493,-0.0192925,-0.009796729,-0.03790117,0.02031803,-0.0005271151,-0.001673106,0.005828867,0.3877772802500001,0.050723477241,0.4412843065100001,-0.02308421,0.02508934,-0.03083735
2023-11-27 08:00:42.151000064,-0.1498151,-0.00865075,-0.01904719,-0.01584329,-0.04094744,0.01091543,-0.001216898,-0.002060301,0.006169784,0.38656038225,0.048663176241,0.4474540905100001,-0.02312674,0.02507189,-0.03069171
2023-11-27 08:00:42.164000000,-0.1493686,-0.008316368,-0.01908362,-0.02405282,-0.03759511,0.008581611,-0.001709667,-0.002753096,0.006560982,0.38485071525,0.045910080241,0.4540150725100001,-0.02317574,0.02510582,-0.03049211
2023-11-27 08:00:42.177999872,-0.1488381,-0.008222222,-0.01891786,-0.03894371,-0.03615643,0.009788691,-0.002099673,-0.003156384,0.006963331,0.38275104225,0.042753696241,0.4609784035100001,-0.02323053,0.02512421,-0.03030007
2023-11-27 08:00:42.192000000,-0.1485262,-0.008002371,-0.01913706,-0.04438512,-0.03344346,0.01439556,-0.002147508,-0.004454926,0.007276501,0.38060353425,0.038298770241,0.4682549045100001,-0.02325942,0.0250397,-0.03017666
2023-11-27 08:00:42.206000128,-0.1478671,-0.00767231,-0.01922468,-0.06055265,-0.03214542,0.01896358,-0.00210304,-0.005029707,0.00749848,0.37850049425,0.033269063241,0.4757533845100001,-0.02328335,0.02496417,-0.03004416
2023-11-27 08:00:42.220000000,-0.1472535,-0.007370472,-0.01918186,-0.0710049,-0.0291687,0.01894678,-0.001740675,-0.005973794,0.007737882,0.3767598192499999,0.027295269241,0.4834912665100001,-0.02328971,0.02481579,-0.02988998
2023-11-27 08:00:42.233999872,-0.1465886,-0.007100105,-0.01920852,-0.08066364,-0.0308818,0.01792713,-0.00125746,-0.006917768,0.008295399,0.37550235925,0.020377501241,0.49178666551,-0.02328616,0.02463287,-0.02970742
2023-11-27 08:00:42.248000000,-0.1459887,-0.006713927,-0.01921243,-0.08829713,-0.03196069,0.02017817,-0.0002565663,-0.007669711,0.008942704,0.37524579295,0.012707790241,0.50072936951,-0.02325615,0.02445732,-0.02951162
2023-11-27 08:00:42.262000128,-0.1451892,-0.006320715,-0.01952354,-0.09547432,-0.0369502,0.02884589,0.0007801382,-0.008490972,0.009890439,0.37602593115,0.004216818241,0.51061980851,-0.02321467,0.0243395,-0.02931913
2023-11-27 08:00:42.276000000,-0.1443651,-0.005494922,-0.02001721,-0.1052688,-0.04084086,0.05048997,0.002180808,-0.009388949,0.01082387,0.3782067391499999,-0.0051721307589999,0.52144367851,-0.02314039,0.02422396,-0.0290872
2023-11-27 08:00:42.289999872,-0.1433612,-0.004717857,-0.0202772,-0.1159002,-0.0496221,0.06111701,0.003600086,-0.009784333,0.01152074,0.38180682515,-0.0149564637589999,0.53296441851,-0.02308039,0.02418603,-0.02881484
2023-11-27 08:00:42.304000000,-0.1425172,-0.003919661,-0.02061521,-0.1180793,-0.06051826,0.07024173,0.005043366,-0.01006756,0.01230939,0.3868501911499999,-0.0250240237589999,0.54527380851,-0.02300278,0.02416284,-0.02852417
2023-11-27 08:00:42.318000128,-0.1416535,-0.00311783,-0.02106132,-0.1243967,-0.06855551,0.08075475,0.006351831,-0.01024533,0.0129981,0.3932020221499999,-0.0352693537589999,0.55827190851,-0.02288735,0.02409514,-0.02825254
2023-11-27 08:00:42.332000000,-0.1405815,-0.00205484,-0.02170279,-0.1353154,-0.07797602,0.09806839,0.007646317,-0.01116135,0.01340993,0.4008483391499999,-0.0464307037589999,0.57168183851,-0.02273907,0.0239686,-0.02798453
2023-11-27 08:00:42.344999936,-0.1395573,-0.0008603036,-0.02201014,-0.1448464,-0.08950119,0.1071872,0.009054108,-0.01226363,0.01367073,0.4099024471499999,-0.0586943337589999,0.58535256851,-0.0225084,0.02377435,-0.02770557
2023-11-27 08:00:42.359000064,-0.1385137,0.00023669,-0.02218289,-0.1539172,-0.09854131,0.1080585,0.01031394,-0.01272725,0.01400355,0.42021638715,-0.0714215837589999,0.5993561185099999,-0.02236829,0.02360998,-0.02738597
2023-11-27 08:00:42.374000128,-0.1374601,0.001546204,-0.02257222,-0.1593086,-0.1133933,0.1080612,0.01075671,-0.01263084,0.01425856,0.43097309715,-0.0840524237589999,0.61361467851,-0.02223791,0.02347339,-0.02707458
2023-11-27 08:00:42.388000000,-0.1362028,0.002831519,-0.02273272,-0.1617811,-0.121161,0.1020688,0.01139392,-0.01288737,0.01448028,0.44236701715,-0.0969397937589999,0.62809495851,-0.02210132,0.02331316,-0.02679407
2023-11-27 08:00:42.400999936,-0.1351118,0.003880918,-0.02291751,-0.1684427,-0.1263338,0.0955172,0.01232793,-0.01384759,0.01482105,0.45469494715,-0.1107873837589999,0.64291600851,-0.02184135,0.02303411,-0.02647625
2023-11-27 08:00:42.415000064,-0.13379,0.005119562,-0.02297502,-0.1797068,-0.1353206,0.0897551,0.01338903,-0.01562157,0.01532263,0.46808397715,-0.1264089537589999,0.65823863851,-0.02159232,0.02275605,-0.02614634
2023-11-27 08:00:42.428999936,-0.1322277,0.006591827,-0.02314504,-0.1970439,-0.1397375,0.09306784,0.01460141,-0.01773616,0.01604963,0.48268538715,-0.1441451137589999,0.67428826851,-0.02139961,0.0224927,-0.02571551
2023-11-27 08:00:42.443000064,-0.1304283,0.007948786,-0.02342467,-0.2199414,-0.1458286,0.1020883,0.01590649,-0.02078809,0.01684066,0.49859187715,-0.1649332037589999,0.69112892851,-0.02110451,0.02214001,-0.02526812
2023-11-27 08:00:42.457999872,-0.1280426,0.009571284,-0.02403122,-0.256492,-0.1491882,0.1185516,0.01763266,-0.02437565,0.01729194,0.5162245371499999,-0.1893088537589999,0.70842086851,-0.02081765,0.02172315,-0.02491675
2023-11-27 08:00:42.471000064,-0.125147,0.01117995,-0.02446707,-0.3026429,-0.1546033,0.1323543,0.0193243,-0.02884162,0.01757368,0.5355488371499999,-0.2181504737589999,0.72599454851,-0.02046453,0.0212627,-0.02454169
2023-11-27 08:00:42.484999936,-0.1220208,0.0130589,-0.02500932,-0.3551297,-0.1610381,0.1492465,0.02128586,-0.03394114,0.01780105,0.5568346971499999,-0.2520916137589999,0.74379559851,-0.02007668,0.02063339,-0.02410392
2023-11-27 08:00:42.499000064,-0.1181917,0.01500753,-0.02572374,-0.4190048,-0.1723047,0.1618724,0.02363527,-0.03964167,0.01761059,0.5804699671499999,-0.291733283759,0.76140618851,-0.01958133,0.01993127,-0.02360047
2023-11-27 08:00:42.512999936,-0.1141849,0.01725885,-0.02598783,-0.479962,-0.1894478,0.1694876,0.02602249,-0.04516536,0.01743083,0.6064924571499999,-0.3368986437589999,0.77883701851,-0.01911638,0.01913736,-0.0230992
2023-11-27 08:00:42.527000064,-0.1101779,0.01957756,-0.02645597,-0.5261157,-0.2074587,0.1799402,0.02853258,-0.0498111,0.01773172,0.6350250371499999,-0.3867097437589999,0.79656873851,-0.01865987,0.01846745,-0.02264332
2023-11-27 08:00:42.540000000,-0.1068014,0.02198413,-0.02687576,-0.5317458,-0.2259942,0.1863894,0.03055792,-0.05132142,0.01820985,0.6655829571499999,-0.438031163759,0.81477858851,-0.01818358,0.01789175,-0.02219146
2023-11-27 08:00:42.555000064,-0.1038342,0.0242804,-0.0271073,-0.506539,-0.2456646,0.1881548,0.03213855,-0.0497486,0.01911184,0.6977215071499999,-0.4877797637589999,0.83389042851,-0.01753098,0.01742887,-0.02143211
2023-11-27 08:00:42.568000000,-0.1011027,0.02689856,-0.02771055,-0.4778444,-0.2567255,0.1847672,0.03356956,-0.04694991,0.01975301,0.7312910671499999,-0.5347296737589999,0.8536434385099999,-0.01688921,0.01687436,-0.02053269
2023-11-27 08:00:42.583000064,-0.0982691,0.02901503,-0.02769071,-0.4578729,-0.2638669,0.179413,0.03433826,-0.04557196,0.02006726,0.7656293271499999,-0.5803016337589999,0.8737106985099999,-0.01622232,0.0162522,-0.01977508
2023-11-27 08:00:42.596000000,-0.09515726,0.03119001,-0.02788675,-0.4499024,-0.2640765,0.1668663,0.03460417,-0.04587612,0.019296,0.8002334971499999,-0.6261777537589999,0.8930066985099999,-0.01575026,0.01562291,-0.01939429
2023-11-27 08:00:42.609999872,-0.09227305,0.03326955,-0.02836536,-0.447079,-0.2527336,0.1675262,0.03431955,-0.04593852,0.01818159,0.8345530471499999,-0.6721162737589998,0.91118828851,-0.01530391,0.0150344,-0.01903636
2023-11-27 08:00:42.625999872,-0.08948199,0.03518137,-0.02890092,-0.4373666,-0.2411457,0.1716953,0.0332524,-0.04508261,0.01710037,0.8678054471499999,-0.7171988837589999,0.92828865851,-0.01480109,0.0144919,-0.01852763
2023-11-27 08:00:42.638000128,-0.08678103,0.03708628,-0.02950558,-0.4247542,-0.2267196,0.1779065,0.0320015,-0.04413781,0.01606201,0.8998069471499999,-0.7613366937589998,0.9443506685099998,-0.01434406,0.01393493,-0.01801708
2023-11-27 08:00:42.653000192,-0.08402732,0.03881189,-0.02991295,-0.4152253,-0.214586,0.176851,0.03109474,-0.04356831,0.01555845,0.93090168715,-0.8049050037589998,0.9599091185099998,-0.01389571,0.01336877,-0.0176202
2023-11-27 08:00:42.665999872,-0.08124895,0.04037997,-0.03040851,-0.4127515,-0.198116,0.1756995,0.0303025,-0.04346647,0.01495829,0.96120418715,-0.8483714737589998,0.97486740851,-0.01349297,0.01277541,-0.01733881
2023-11-27 08:00:42.680000000,-0.07844089,0.04192051,-0.03103657,-0.4060362,-0.1854195,0.1783434,0.02878689,-0.04347588,0.01401669,0.98999107715,-0.8918473537589998,0.98888409851,-0.01314208,0.01230108,-0.01704775
2023-11-27 08:00:42.694999808,-0.07603253,0.04338369,-0.03178026,-0.391331,-0.1704701,0.1814279,0.02738538,-0.04197364,0.01279569,1.01737645715,-0.933820993759,1.00167978851,-0.01282203,0.01188893,-0.01676928
2023-11-27 08:00:42.708000000,-0.07419457,0.04469484,-0.03257851,-0.358914,-0.1592315,0.1830424,0.02579988,-0.03988685,0.01142768,1.04317633715,-0.973707843759,1.01310746851,-0.01250312,0.01146349,-0.01650768
2023-11-27 08:00:42.723000064,-0.07212164,0.04604757,-0.03303836,-0.3298475,-0.1478074,0.1742999,0.02396208,-0.03669367,0.009687521,1.06713841715,-1.010401513759,1.02279498951,-0.01226976,0.01116044,-0.01632471
2023-11-27 08:00:42.736000000,-0.07047416,0.04716289,-0.03373461,-0.2986349,-0.1345016,0.1717068,0.0221353,-0.03383557,0.008017184,1.08927371715,-1.0442370837589998,1.03081217351,-0.01202078,0.01083126,-0.01616545
2023-11-27 08:00:42.750000128,-0.06929615,0.04809226,-0.03456247,-0.2591808,-0.1201205,0.1657012,0.02031093,-0.03079301,0.006493482,1.10958464715,-1.0750300937589998,1.03730565551,-0.01175617,0.01052654,-0.01605592
2023-11-27 08:00:42.764000000,-0.06842735,0.04893668,-0.03527883,-0.2123738,-0.1071953,0.1584014,0.01832358,-0.02702674,0.004405094,1.1279082271499998,-1.1020568337589998,1.04171074951,-0.01154846,0.01029132,-0.0159996
2023-11-27 08:00:42.778000128,-0.06758624,0.04949516,-0.03576349,-0.1737394,-0.08872248,0.1483334,0.01693108,-0.02319747,0.002210098,1.1448393071499998,-1.1252543037589997,1.04392084751,-0.01133832,0.01011825,-0.01598361
2023-11-27 08:00:42.792999936,-0.06703334,0.04993591,-0.03639487,-0.1393657,-0.07317012,0.1300006,0.01499677,-0.01939288,-0.0002968232,1.1598360771499998,-1.1446471837589998,1.04362402431,-0.01116508,0.009957602,-0.0160412
2023-11-27 08:00:42.805999872,-0.06629814,0.05037576,-0.0369049,-0.1190232,-0.05665988,0.1173302,0.01295284,-0.01602325,-0.002589531,1.17278891715,-1.1606704337589997,1.04103449331,-0.01106555,0.009863058,-0.01611238
2023-11-27 08:00:42.820000000,-0.06579705,0.05036023,-0.03728414,-0.09891984,-0.03890454,0.1025591,0.01083685,-0.01329525,-0.004728779,1.18362576715,-1.1739656837589998,1.03630571431,-0.01087408,0.009668224,-0.01613283
2023-11-27 08:00:42.834000128,-0.06545861,0.05049056,-0.03780998,-0.08054898,-0.02009797,0.09485392,0.008834207,-0.01037002,-0.006213144,1.19245997415,-1.184335703759,1.03009257031,-0.01081792,0.009658244,-0.01623743
2023-11-27 08:00:42.846999808,-0.06519379,0.05058357,-0.03853545,-0.06117194,-0.005380347,0.09638225,0.006795342,-0.008087141,-0.007363663,1.19925531615,-1.192422844759,1.02272890731,-0.0107858,0.009672428,-0.01635629
2023-11-27 08:00:42.861999872,-0.06495148,0.05056687,-0.03890854,-0.04708029,-0.0001171011,0.09022272,0.004464041,-0.006555127,-0.008278258,1.20371935715,-1.198977971759,1.01445064931,-0.01078602,0.009650295,-0.0164991
2023-11-27 08:00:42.876000000,-0.06462575,0.0504548,-0.03910889,-0.04105405,0.01282957,0.07425297,0.002660904,-0.005650708,-0.009183914,1.20638026115,-1.2046286797589998,1.00526673531,-0.01079573,0.009610199,-0.01665782
2023-11-27 08:00:42.890000128,-0.06431661,0.05021183,-0.03934595,-0.03852599,0.02431109,0.05870332,0.0004573618,-0.005516905,-0.01019255,1.20683762295,-1.2101455847589997,0.99507418531,-0.01088041,0.009594692,-0.01682963
2023-11-27 08:00:42.904000000,-0.06399643,0.04956481,-0.03930789,-0.03743216,0.04025213,0.03079939,-0.002269849,-0.005286152,-0.0112803,1.20456777395,-1.2154317367589995,0.98379388531,-0.01102411,0.009568227,-0.0170437
2023-11-27 08:00:42.917999872,-0.06381921,0.0489102,-0.03897939,-0.02984181,0.05726877,0.0009299708,-0.004975582,-0.004468579,-0.01207102,1.19959219195,-1.2199003157589998,0.97172286531,-0.01118664,0.009522504,-0.01726912
2023-11-27 08:00:42.931000064,-0.06381962,0.04816359,-0.03899491,-0.02020189,0.07134514,-0.008922568,-0.007581048,-0.003467515,-0.01257524,1.19201114395,-1.223367830759,0.95914762531,-0.01136576,0.009499064,-0.01750817
2023-11-27 08:00:42.946000128,-0.06371088,0.04744181,-0.03882474,-0.0124779,0.08569068,-0.01727396,-0.009599891,-0.002848339,-0.01275931,1.1824112529500002,-1.226216169759,0.94638831531,-0.01155985,0.009462161,-0.01773799
2023-11-27 08:00:42.959000064,-0.06370562,0.04651803,-0.0385427,-0.009468111,0.09700169,-0.03067329,-0.01132546,-0.002747762,-0.01262056,1.1710857929500005,-1.228963931759,0.93376775531,-0.01178165,0.009447506,-0.01797089
2023-11-27 08:00:42.972999936,-0.06332396,0.04552528,-0.03852295,-0.01335416,0.1113928,-0.03713103,-0.01253614,-0.003117715,-0.01236601,1.1585496529500003,-1.232081646759,0.92140174531,-0.0120018,0.009428049,-0.01820184
2023-11-27 08:00:42.987000064,-0.06307801,0.04462692,-0.0384986,-0.02092187,0.1225848,-0.03587756,-0.01383721,-0.003984901,-0.0117721,1.1447124429500004,-1.2360665477589998,0.90962964531,-0.01223896,0.009357017,-0.01840825
2023-11-27 08:00:43.000999936,-0.06244534,0.04356885,-0.03842646,-0.03204387,0.1376826,-0.03356529,-0.01460118,-0.005490457,-0.01111685,1.1301112629500003,-1.241557004759,0.8985127953100001,-0.01247054,0.009228848,-0.01861308
2023-11-27 08:00:43.015000064,-0.06192722,0.04236162,-0.03825843,-0.04132055,0.142964,-0.03599277,-0.01544716,-0.006981625,-0.01047821,1.1146641029500004,-1.248538629759,0.88803458531,-0.01271351,0.009074558,-0.01881617
2023-11-27 08:00:43.028999936,-0.06132836,0.04137629,-0.03812107,-0.05440061,0.1523581,-0.03959428,-0.01616781,-0.007514726,-0.009702446,1.0984962929500004,-1.256053355759,0.87833213931,-0.01300733,0.00894073,-0.01894641
2023-11-27 08:00:43.043000064,-0.06097388,0.04014957,-0.03792985,-0.05413939,0.1586479,-0.03790084,-0.0169498,-0.008415928,-0.008766979,1.0815464929500005,-1.264469283759,0.86956516031,-0.01324069,0.008759538,-0.01909243
2023-11-27 08:00:43.056999936,-0.06029513,0.03893754,-0.03765051,-0.0623542,0.1648842,-0.04148209,-0.01737554,-0.008782323,-0.007854871,1.0641709529500003,-1.2732516067589998,0.8617102893099999,-0.01349155,0.008616562,-0.01926608
2023-11-27 08:00:43.071000064,-0.05978415,0.03773141,-0.03744297,-0.06194746,0.1690933,-0.05185309,-0.01790931,-0.009511191,-0.006873345,1.0462616429500005,-1.282762797759,0.8548369443099999,-0.01377791,0.008437856,-0.01939565
2023-11-27 08:00:43.084999936,-0.05907245,0.03647354,-0.03737335,-0.06750701,0.1708933,-0.04766984,-0.01869475,-0.0097306,-0.005887614,1.0275668929500004,-1.292493397759,0.8489493303099999,-0.01403661,0.008311991,-0.01952718
2023-11-27 08:00:43.099000064,-0.0584701,0.03545696,-0.03725874,-0.07046044,0.1728097,-0.03946287,-0.01907074,-0.00983448,-0.004772205,1.0084961529500005,-1.302327877759,0.8441771253099999,-0.01437062,0.008189596,-0.01958727
2023-11-27 08:00:43.112999936,-0.05796076,0.03417823,-0.03692542,-0.06922206,0.1733372,-0.04714224,-0.01943332,-0.009233808,-0.003565914,0.9890628329500004,-1.311561685759,0.8406112113099999,-0.01465095,0.008078226,-0.01965981
2023-11-27 08:00:43.128000000,-0.05758871,0.03300399,-0.03688149,-0.06096865,0.1722388,-0.05034244,-0.01993782,-0.008045625,-0.00220722,0.9691250129500004,-1.319607310759,0.83840399131,-0.01494049,0.007992731,-0.01974838
2023-11-27 08:00:43.140000000,-0.05714021,0.03179893,-0.03668383,-0.05298595,0.1727226,-0.04778918,-0.02044693,-0.00715469,-0.001215914,0.9486780829500004,-1.326762000759,0.83718807731,-0.01525776,0.007913986,-0.01980994
2023-11-27 08:00:43.154000128,-0.0567014,0.03064868,-0.03639072,-0.04923545,0.1725843,-0.05243758,-0.02078329,-0.006787818,-9.039557e-05,0.9278947929500004,-1.333549818759,0.83709768174,-0.01555048,0.007779546,-0.01985892
2023-11-27 08:00:43.168000000,-0.05591259,0.02935782,-0.03599446,-0.05993059,0.172127,-0.0600424,-0.0210806,-0.006926491,0.0007527107,0.9068141929500004,-1.340476309759,0.83785039244,-0.01584661,0.007656581,-0.01990728
2023-11-27 08:00:43.183000064,-0.0552863,0.02815425,-0.03594181,-0.06852524,0.1729294,-0.06243749,-0.02115176,-0.007787375,0.0018135,0.8856624329500004,-1.348263684759,0.8396638924400001,-0.01611599,0.007484405,-0.01993521
2023-11-27 08:00:43.196000000,-0.05460854,0.0271062,-0.03549697,-0.079311,0.1708686,-0.0574767,-0.02128028,-0.008491462,0.002855317,0.8643821529500003,-1.356755146759,0.84251920944,-0.01646889,0.00732337,-0.01993592
2023-11-27 08:00:43.210000128,-0.05372671,0.0261161,-0.03528812,-0.09003529,0.1690166,-0.05353378,-0.02107866,-0.009283994,0.004030378,0.8433034929500003,-1.366039140759,0.84654958744,-0.01679023,0.007152263,-0.01991653
2023-11-27 08:00:43.224000000,-0.05274436,0.02506745,-0.03523873,-0.1021972,0.1627358,-0.04696998,-0.02089038,-0.01018206,0.005158901,0.8224131129500003,-1.376221200759,0.85170848844,-0.01699322,0.006949122,-0.01988051
2023-11-27 08:00:43.237999872,-0.0516943,0.02416146,-0.03512426,-0.1103525,0.1574127,-0.04486448,-0.02044916,-0.0114624,0.006465596,0.8019639529500003,-1.387683600759,0.85817408444,-0.01722946,0.006763392,-0.01981814
2023-11-27 08:00:43.252000000,-0.05074211,0.02315277,-0.03467815,-0.1196548,0.1532435,-0.04376986,-0.02002749,-0.0124329,0.007795012,0.7819364629500003,-1.4001165007590002,0.86596909644,-0.01748054,0.006539003,-0.0197372
2023-11-27 08:00:43.266000128,-0.04973195,0.02220038,-0.03439822,-0.1248218,0.150528,-0.04921711,-0.01972932,-0.01263883,0.009260669,0.7622071429500002,-1.4127553307590002,0.87522976544,-0.01776213,0.0063889,-0.01963307
2023-11-27 08:00:43.280000000,-0.04889537,0.02113,-0.03414572,-0.120109,0.1545677,-0.05213376,-0.01889322,-0.01259992,0.01086817,0.7433139229500002,-1.4253552507590002,0.8860979354399999,-0.0180118,0.0061804,-0.01949442
2023-11-27 08:00:43.293999872,-0.04796064,0.02003098,-0.0339473,-0.1161843,0.1503757,-0.04975204,-0.01859332,-0.01275508,0.01214007,0.7247206029500002,-1.4381103307590002,0.8982380054399999,-0.01820998,0.006014274,-0.01937059
2023-11-27 08:00:43.308000000,-0.04687785,0.01911178,-0.03369786,-0.125905,0.1495471,-0.04825025,-0.01797744,-0.01301586,0.01290331,0.7067431629500002,-1.4511261907590003,0.91114131544,-0.01847037,0.005819871,-0.01924412
2023-11-27 08:00:43.321000192,-0.04573931,0.01829731,-0.03371308,-0.1329106,0.1499016,-0.04233866,-0.01713175,-0.01386264,0.01316123,0.6896114129500002,-1.4649888307590002,0.92430254544,-0.01871052,0.00561434,-0.01911098
2023-11-27 08:00:43.336000000,-0.04451429,0.01730493,-0.03366197,-0.144101,0.148444,-0.02910429,-0.01643045,-0.01427738,0.0132853,0.6731809629500002,-1.4792662107590002,0.93758784544,-0.01891613,0.005404227,-0.01898736
2023-11-27 08:00:43.349999872,-0.04339394,0.01641285,-0.03346252,-0.1489945,0.1430818,-0.02549751,-0.01597088,-0.01441571,0.01341099,0.6572100829500002,-1.4936819207590002,0.95099883544,-0.01911095,0.005197268,-0.01885247
2023-11-27 08:00:43.362999808,-0.04226986,0.01562464,-0.03362812,-0.1493579,0.1439438,-0.01658358,-0.01494996,-0.0144888,0.0138973,0.6422601229500001,-1.5081707207590005,0.96489613544,-0.01927921,0.004994226,-0.01874528
2023-11-27 08:00:43.377000192,-0.04120433,0.01467606,-0.03365863,-0.1485807,0.1395559,-0.0109476,-0.0142581,-0.01507515,0.01428444,0.6280020229500001,-1.5232458707590002,0.97918057544,-0.0193842,0.004738241,-0.01863209
2023-11-27 08:00:43.392000000,-0.03978825,0.01405054,-0.03369385,-0.1576695,0.1350297,-0.00806728,-0.01329139,-0.01589051,0.01462192,0.6147106329500001,-1.5391363807590002,0.99380249544,-0.01957479,0.004488573,-0.01847935
2023-11-27 08:00:43.404999936,-0.03835413,0.01328623,-0.03374192,-0.1730832,0.1313672,-0.005104107,-0.01210176,-0.01751322,0.0148158,0.6026088729500001,-1.5566496007590005,1.0086182954399998,-0.01968725,0.004164591,-0.01830995
2023-11-27 08:00:43.418999808,-0.03661808,0.01274076,-0.03365798,-0.1952363,0.1270648,-0.005263649,-0.01115223,-0.01936512,0.01485478,0.5914566429500001,-1.5760147207590005,1.02347307544,-0.01986076,0.003822721,-0.01817561
2023-11-27 08:00:43.433000192,-0.03463477,0.01217744,-0.03381382,-0.2212875,0.1239211,-0.002005486,-0.01020363,-0.02223372,0.01471076,0.5812530129500001,-1.5982484407590003,1.03818383544,-0.01999306,0.003419729,-0.01806512
2023-11-27 08:00:43.447000064,-0.03255516,0.01160148,-0.03386344,-0.2463291,0.1195821,0.005217407,-0.009132531,-0.02528487,0.01450969,0.5721204819500001,-1.6235333107590002,1.0526935254399998,-0.0200941,0.003004611,-0.01793333
2023-11-27 08:00:43.460999936,-0.03036072,0.01118234,-0.03384265,-0.2688777,0.1102791,0.01241906,-0.008141169,-0.02729018,0.01457023,0.5639793129500001,-1.6508234907590005,1.0672637554399995,-0.02018249,0.002647829,-0.01772354
2023-11-27 08:00:43.474999808,-0.02875671,0.01082104,-0.03401545,-0.2607143,0.09933932,0.01212872,-0.006924123,-0.02780253,0.01487322,0.5570551899500001,-1.6786260207590002,1.0821369754399996,-0.02023231,0.002342419,-0.01751259
2023-11-27 08:00:43.489000192,-0.02746568,0.01033631,-0.03391282,-0.2355264,0.08907463,0.006266135,-0.005240748,-0.0257122,0.0153462,0.5518144419500002,-1.7043382207590003,1.0974831754399996,-0.02020448,0.002106522,-0.01731318
2023-11-27 08:00:43.504000000,-0.0264124,0.01027101,-0.03403744,-0.207221,0.07634139,0.005515886,-0.003467766,-0.02331245,0.01548117,0.5483466759500002,-1.7276506707590005,1.1129643454399996,-0.02021561,0.001845928,-0.01713342
2023-11-27 08:00:43.516999936,-0.02511784,0.01014766,-0.03380062,-0.1913483,0.06166739,-0.003427588,-0.001483691,-0.02173825,0.01494715,0.5468629849500002,-1.7493889207590003,1.1279114954399996,-0.02018489,0.001560661,-0.01695134
2023-11-27 08:00:43.530999808,-0.02385366,0.01012102,-0.03383215,-0.187584,0.04269208,-0.0048302,0.0003699742,-0.02177452,0.01367929,0.5472329591500001,-1.7711634407590002,1.1415907854399996,-0.02008168,0.001206374,-0.01678957
2023-11-27 08:00:43.544000000,-0.02233213,0.01047575,-0.0338514,-0.1942148,0.02403599,0.002784302,0.002444617,-0.02205481,0.01214999,0.5496775761500001,-1.7932182507590002,1.1537407754399995,-0.02003006,0.0009148845,-0.0166431
2023-11-27 08:00:43.559000064,-0.02096062,0.01073447,-0.03384763,-0.1988924,0.005085315,0.005634245,0.004863532,-0.02204062,0.01087495,0.5545411081500001,-1.8152588707590005,1.1646157254399996,-0.0198385,0.0006254821,-0.01647298
2023-11-27 08:00:43.572000000,-0.0196765,0.01146042,-0.03395822,-0.195744,-0.02016705,0.01130114,0.007074776,-0.02177928,0.009594989,0.5616158841500001,-1.8370381507590003,1.1742107144399996,-0.01970371,0.0003615755,-0.01632167
2023-11-27 08:00:43.586999808,-0.01845741,0.01217774,-0.03411072,-0.1934934,-0.04515531,0.02010638,0.009208225,-0.02125068,0.008523682,0.57082410915,-1.8582888307590004,1.1827343964399997,-0.01950229,8.213799e-05,-0.01616101
2023-11-27 08:00:43.600000000,-0.01746021,0.01308849,-0.03419013,-0.1835618,-0.0678001,0.02395965,0.01160339,-0.02126569,0.007672013,0.58242749915,-1.8795545207590003,1.1904064094399998,-0.01929241,-0.0002352118,-0.01599818
2023-11-27 08:00:43.614000128,-0.01627812,0.01410452,-0.03436314,-0.182863,-0.09460116,0.02755031,0.01397148,-0.02115338,0.007160371,0.5963989791500001,-1.9007079007590004,1.19756678044,-0.01899336,-0.0005268047,-0.01582799
2023-11-27 08:00:43.628000000,-0.01496315,0.01558089,-0.03464951,-0.187909,-0.119267,0.03852144,0.01643394,-0.02128708,0.006467876,0.61283291915,-1.9219949807590004,1.20403465644,-0.01872399,-0.0008041107,-0.01560095
2023-11-27 08:00:43.640999936,-0.01352234,0.01730153,-0.03529092,-0.2006278,-0.1553615,0.0582756,0.0191034,-0.02187294,0.005420131,0.63193631915,-1.9438679207590004,1.20945478744,-0.01833641,-0.001087428,-0.01539006
2023-11-27 08:00:43.656000000,-0.01178224,0.0193975,-0.03579831,-0.2202368,-0.1962298,0.07773739,0.02217892,-0.02259176,0.00379925,0.65411523915,-1.9664596807590005,1.2132540374399998,-0.01791593,-0.001343814,-0.01520233
2023-11-27 08:00:43.670000128,-0.01018816,0.02173427,-0.03617862,-0.2394036,-0.2346119,0.08130068,0.02574107,-0.02307888,0.001813628,0.6798563091500001,-1.9895385607590004,1.21506766544,-0.0174936,-0.001667333,-0.01508273
2023-11-27 08:00:43.684000000,-0.008681444,0.0239841,-0.03599814,-0.24455,-0.2635303,0.06370605,0.02862862,-0.0234064,0.0001010578,0.70848492915,-2.0129449607590004,1.21516872324,-0.01702892,-0.001961702,-0.01493987
2023-11-27 08:00:43.696999936,-0.007319431,0.02635354,-0.03603746,-0.2456717,-0.2841215,0.04739509,0.03080334,-0.02356531,-0.001261111,0.73928826915,-2.0365102707590004,1.21390761224,-0.016533,-0.00231828,-0.01480242
2023-11-27 08:00:43.711000064,-0.005802792,0.02886376,-0.03593942,-0.2473105,-0.3022061,0.03390979,0.03243071,-0.0239138,-0.002639467,0.77171897915,-2.060424070759,1.2112681452399998,-0.01602574,-0.002642186,-0.01468237
2023-11-27 08:00:43.724999936,-0.004327904,0.03148186,-0.0358292,-0.25157,-0.3194339,0.02646392,0.03347898,-0.02424102,-0.004128937,0.80519795915,-2.084665090759,1.20713920824,-0.01554111,-0.003013429,-0.01459129
2023-11-27 08:00:43.739000064,-0.002893765,0.03410599,-0.03604192,-0.2454904,-0.3321478,0.03089385,0.03429287,-0.02376467,-0.005364137,0.8394908291500001,-2.108429760759,1.20177507124,-0.01504897,-0.003226038,-0.01449277
2023-11-27 08:00:43.752999936,-0.002062763,0.03662929,-0.03588798,-0.2244923,-0.3377097,0.02233196,0.03451438,-0.02161792,-0.006346151,0.87400520915,-2.130047680759,1.19542892024,-0.01456518,-0.003498736,-0.01442515
2023-11-27 08:00:43.767000064,-0.00128514,0.03876361,-0.03562058,-0.1968463,-0.3340424,0.01239243,0.03412669,-0.01889354,-0.007503212,0.90813189915,-2.148941220759,1.18792570824,-0.01403227,-0.003723103,-0.014369
2023-11-27 08:00:43.780999936,-0.0007018661,0.04084897,-0.03537247,-0.1704391,-0.3184678,-0.001242654,0.03349762,-0.01612289,-0.008652236,0.94162951915,-2.1650641107590003,1.1792734722399998,-0.01358377,-0.003918842,-0.01438098
2023-11-27 08:00:43.795000064,-1.277961e-05,0.04291967,-0.03540001,-0.1459791,-0.306026,-0.001521716,0.03213894,-0.01328114,-0.0100925,0.97376845915,-2.1783452507590004,1.1691809722399995,-0.0131667,-0.004006268,-0.01439406
2023-11-27 08:00:43.808999936,0.000294609,0.04479134,-0.03546046,-0.1255511,-0.296232,0.008136813,0.0310348,-0.01070878,-0.01144142,1.00480325915,-2.1890540307590003,1.1577395522399998,-0.01270141,-0.004127927,-0.01446307
2023-11-27 08:00:43.823000064,0.0007508406,0.0468114,-0.03533988,-0.1059918,-0.2851338,0.004267109,0.02935588,-0.008085272,-0.01295256,1.03415913915,-2.1971393027590005,1.1447869922399998,-0.01237519,-0.004128789,-0.01451402
2023-11-27 08:00:43.836999936,0.0008121599,0.04823586,-0.03497833,-0.08552698,-0.2624309,-0.01021797,0.02727761,-0.005121613,-0.01421125,1.06143674915,-2.2022609157590005,1.1305757422399998,-0.01200959,-0.004175246,-0.0146078
2023-11-27 08:00:43.851000064,0.000684144,0.04950841,-0.03449924,-0.06318879,-0.2351479,-0.02907019,0.02453731,-0.002292778,-0.01484719,1.08597405915,-2.2045536937590007,1.1157285522399998,-0.01173803,-0.004189048,-0.01471311
2023-11-27 08:00:43.864999936,0.0006260993,0.05049098,-0.03423021,-0.0393283,-0.2044811,-0.03571512,0.02218984,0.0001034809,-0.01541128,1.10816389915,-2.2044502128590007,1.10031727224,-0.01145244,-0.004123763,-0.01486295
2023-11-27 08:00:43.878000128,0.0002384549,0.05154742,-0.03421545,-0.01469505,-0.1809193,-0.03246924,0.02034735,0.001984934,-0.01567162,1.12851124915,-2.2024652788590005,1.08464565224,-0.01120843,-0.004089022,-0.01502148
2023-11-27 08:00:43.892000000,-2.254453e-05,0.05253987,-0.0343434,0.001637027,-0.1650878,-0.02194599,0.01883314,0.003705794,-0.015587,1.14734438915,-2.1987594848590004,1.06905865224,-0.0109294,-0.004031274,-0.01507056
2023-11-27 08:00:43.907000064,-0.0003174162,0.05329002,-0.0341982,0.01331327,-0.1467742,-0.01558105,0.01759928,0.004555668,-0.01558063,1.16494366915,-2.1942038168590003,1.0534780222399998,-0.01069672,-0.004006785,-0.01514437
2023-11-27 08:00:43.920000000,-0.0005111871,0.0537568,-0.03395367,0.01654525,-0.1273838,-0.02370475,0.01588444,0.00506537,-0.01580246,1.18082810915,-2.1891384468590003,1.0376755622399998,-0.0104695,-0.003937053,-0.01529066
2023-11-27 08:00:43.935000064,-0.0008176006,0.05422707,-0.03359247,0.02378288,-0.101756,-0.0324485,0.01402823,0.00547166,-0.01582206,1.19485633915,-2.1836667868590003,1.0218535022399995,-0.01037987,-0.003845593,-0.01548581
2023-11-27 08:00:43.948000000,-0.001133268,0.054415,-0.03346574,0.02824881,-0.0840231,-0.03334725,0.01232816,0.006266534,-0.01576661,1.20718449915,-2.1774002528590004,1.0060868922399997,-0.0101629,-0.003753651,-0.01567835
2023-11-27 08:00:43.961999872,-0.001404596,0.05478929,-0.0330485,0.02869303,-0.06594969,-0.04276632,0.01121235,0.006499248,-0.01568949,1.21839684915,-2.1709010048590005,0.9903974022399996,-0.01005901,-0.003690416,-0.01581372
2023-11-27 08:00:43.976000000,-0.001566465,0.05502948,-0.03277982,0.02331525,-0.05296603,-0.04041166,0.0101951,0.005753736,-0.01586629,1.22859194915,-2.165147268859001,0.9745311122399998,-0.009907868,-0.003610214,-0.01595362
2023-11-27 08:00:43.991000064,-0.001527432,0.05501983,-0.03291189,0.01375716,-0.03779872,-0.0284243,0.009040779,0.004576793,-0.01613437,1.23763272815,-2.1605704758590005,0.9583967422399998,-0.009808838,-0.003562009,-0.01617397
2023-11-27 08:00:44.003000064,-0.001553088,0.05509917,-0.033007,0.006955896,-0.02439163,-0.01295146,0.007805475,0.003555706,-0.01609075,1.2454382031500002,-2.1570147698590003,0.9423059922399998,-0.009728011,-0.003532674,-0.01639217
2023-11-27 08:00:44.016999936,-0.001568917,0.05506089,-0.0330294,0.005989644,-0.01108007,-0.0008375777,0.006758129,0.002500852,-0.01564467,1.2521963321500005,-2.1545139178590005,0.9266613222399998,-0.009653762,-0.003540951,-0.01657531
2023-11-27 08:00:44.030999808,-0.001595265,0.05494556,-0.0332114,0.008131068,-0.001920685,0.008015933,0.006103426,0.001561472,-0.01468907,1.2582997581500002,-2.1529524458590004,0.9119722522399998,-0.009570442,-0.003567057,-0.01670603
2023-11-27 08:00:44.045000192,-0.001652142,0.05486566,-0.03340122,0.0111075,0.002383093,0.01374232,0.005718302,0.001444929,-0.01339188,1.2640180601500002,-2.1515075168590005,0.8985803722399998,-0.00948777,-0.003570241,-0.01681304
2023-11-27 08:00:44.059000064,-0.001930819,0.05499279,-0.03366779,0.02075456,-0.004090279,0.01656861,0.005387563,0.001792202,-0.0124462,1.2694056231500002,-2.1497153148590007,0.8861341722399998,-0.0094193,-0.003518383,-0.01695505
2023-11-27 08:00:44.072999936,-0.002179702,0.05513754,-0.03391774,0.02718354,-0.008414431,0.01845033,0.005751816,0.002229285,-0.01180578,1.2751574391500002,-2.147486029859001,0.8743283922399998,-0.009328395,-0.003457524,-0.01709337
2023-11-27 08:00:44.086999808,-0.002372968,0.05527461,-0.03391252,0.02835338,-0.01774014,0.01475462,0.005865891,0.002217658,-0.01185225,1.2810233301500005,-2.1452683718590007,0.8624761422399998,-0.009233508,-0.003407524,-0.01722375
2023-11-27 08:00:44.101000192,-0.002304404,0.05541816,-0.03376658,0.01624907,-0.02040876,0.006614359,0.00592269,0.002681315,-0.01207768,1.2869460201500005,-2.142587056859001,0.8503984622399998,-0.009135179,-0.003339414,-0.01734368
2023-11-27 08:00:44.115000064,-0.00236855,0.05552843,-0.03368697,0.01547669,-0.0195819,-0.002183072,0.005755531,0.002931213,-0.01242149,1.2927015511500002,-2.1396558438590008,0.8379769722399998,-0.009046212,-0.003274786,-0.01748433
2023-11-27 08:00:44.128999936,-0.002747228,0.05565065,-0.03356539,0.01911761,-0.02143264,-0.009263236,0.004995714,0.003570816,-0.01255402,1.2976972651500005,-2.136085027859001,0.8254229522399997,-0.008994184,-0.003215173,-0.01765629
2023-11-27 08:00:44.142999808,-0.002853285,0.05579412,-0.03353072,0.02425197,-0.01841339,-0.00790135,0.004563802,0.004107496,-0.01253178,1.3022610671500003,-2.131977531859001,0.8128911722399997,-0.008941859,-0.003146251,-0.01781994
2023-11-27 08:00:44.157000192,-0.003267051,0.05598609,-0.03348041,0.0298405,-0.01954716,-0.01161403,0.003830108,0.004317623,-0.0124005,1.3060911751500004,-2.127659908859001,0.8004906722399997,-0.008890752,-0.003115824,-0.01791563
2023-11-27 08:00:44.170000128,-0.003571469,0.05592224,-0.03353257,0.03210878,-0.01511539,-0.009199233,0.00341331,0.004780673,-0.01202039,1.3095044851500004,-2.122879235859001,0.7884702822399997,-0.008835603,-0.003075482,-0.01800138
2023-11-27 08:00:44.184999936,-0.003896517,0.05591533,-0.03355772,0.04075265,-0.01054949,-0.007887243,0.002814097,0.005245917,-0.01189674,1.3123185821500003,-2.117633318859001,0.7765735422399997,-0.008804053,-0.00301033,-0.01812654
2023-11-27 08:00:44.198999808,-0.004223628,0.05584468,-0.03355279,0.04366167,-0.00687403,-0.007039492,0.002064703,0.005957232,-0.01178235,1.3143832851500004,-2.111676086859001,0.7647911922399997,-0.008793686,-0.002909439,-0.01829365
2023-11-27 08:00:44.212000000,-0.004627699,0.05573261,-0.03351722,0.0455231,-0.001039846,-0.01214049,0.001424976,0.005939556,-0.0119275,1.3158082611500004,-2.105736530859001,0.7528636922399997,-0.008788601,-0.002829165,-0.01847102
2023-11-27 08:00:44.227000064,-0.004759188,0.05565687,-0.03342729,0.04735929,0.005206546,-0.007894205,0.001037822,0.005138863,-0.01199529,1.3168460831500004,-2.100597667859001,0.7408684022399997,-0.008781672,-0.002775273,-0.01861826
2023-11-27 08:00:44.240000000,-0.004934011,0.05540639,-0.03358481,0.04115943,0.008453893,-0.003279619,0.0005246382,0.004377596,-0.01190837,1.3173707213500003,-2.096220071859001,0.7289600322399997,-0.008786317,-0.002712762,-0.01877472
2023-11-27 08:00:44.255000064,-0.005021146,0.05537824,-0.03370279,0.02956448,0.01010308,0.002803982,0.0002923852,0.003632756,-0.01175727,1.3176631065500004,-2.092587315859001,0.7172027622399997,-0.008787178,-0.002668397,-0.01892894
2023-11-27 08:00:44.268000000,-0.005064321,0.05541551,-0.03383561,0.02179063,0.007486105,0.008971707,0.0004390969,0.002044398,-0.01155469,1.3181022034500005,-2.0905429178590014,0.7056480722399997,-0.008780781,-0.00266801,-0.01908072
2023-11-27 08:00:44.282000128,-0.004933298,0.05542065,-0.03393251,0.005654844,0.003992682,0.01284752,0.0007706257,0.00054621,-0.01104594,1.3188728291500005,-2.0899967078590014,0.6946021322399997,-0.008739073,-0.002704979,-0.01920645
2023-11-27 08:00:44.296000000,-0.004514324,0.05553819,-0.03409093,-0.009910767,0.0007656548,0.01902102,0.00146352,-0.001422543,-0.01014391,1.3203363491500004,-2.0914192508590013,0.6844582222399996,-0.008626953,-0.002821877,-0.01925687
2023-11-27 08:00:44.309999872,-0.00416806,0.05556415,-0.03433623,-0.02574501,-0.00478282,0.02552913,0.00211139,-0.00371417,-0.009226803,1.3224477391500005,-2.095133420859001,0.6752314192399996,-0.008508246,-0.002970092,-0.01930379
2023-11-27 08:00:44.323000064,-0.003339694,0.05596787,-0.0345032,-0.04962898,-0.01091462,0.03559191,0.002568695,-0.006077701,-0.008587621,1.3250164341500004,-2.1012111218590013,0.6666437982399996,-0.008449659,-0.003109784,-0.01936962
2023-11-27 08:00:44.336999936,-0.002566881,0.05615197,-0.03474007,-0.07519527,-0.01643569,0.03805302,0.00275497,-0.008361356,-0.008049925,1.3277714041500004,-2.1095724778590013,0.6585938732399996,-0.008405581,-0.003265738,-0.01945143
2023-11-27 08:00:44.352000000,-0.001569244,0.05640316,-0.03496943,-0.09527612,-0.01733119,0.04705319,0.003450675,-0.01061831,-0.006895982,1.3312220791500005,-2.120190787859001,0.6516978912399997,-0.008322377,-0.003452985,-0.01948359
2023-11-27 08:00:44.364999936,-0.0006067241,0.05669905,-0.03533975,-0.1160637,-0.02248862,0.05573735,0.003889798,-0.01190538,-0.005538031,1.3351118771500006,-2.132096167859001,0.6461598602399996,-0.008228336,-0.003624151,-0.01947215
2023-11-27 08:00:44.379000064,0.0002908176,0.05701359,-0.03568771,-0.1199487,-0.02437017,0.0638619,0.004398094,-0.01294865,-0.003948348,1.3395099711500005,-2.145044817859001,0.6422115122399996,-0.008127116,-0.003805561,-0.01942967
2023-11-27 08:00:44.392999936,0.001307063,0.05743043,-0.03633211,-0.1275616,-0.03080488,0.07783989,0.004440704,-0.01354186,-0.002704447,1.3439506751500006,-2.158586677859001,0.6395070652399996,-0.008055434,-0.003970194,-0.01940481
2023-11-27 08:00:44.407000064,0.002512051,0.05785304,-0.03673555,-0.1370643,-0.03771583,0.08385652,0.004360891,-0.0141694,-0.001986533,1.3483115661500005,-2.172756077859001,0.6375205322399996,-0.007988635,-0.00416005,-0.0193817
2023-11-27 08:00:44.420999936,0.003737736,0.058208,-0.0370037,-0.1486184,-0.03633342,0.08069824,0.00470981,-0.01460505,-0.001334234,1.3530213761500005,-2.1873611278590013,0.6361862982399996,-0.007872738,-0.00438292,-0.0193153
2023-11-27 08:00:44.435000064,0.004995733,0.05848914,-0.03716722,-0.1591827,-0.03739908,0.07400932,0.004622872,-0.01443114,-0.0007833053,1.3576442481500006,-2.2017922678590014,0.6354029929399996,-0.007759079,-0.004607618,-0.01923104
2023-11-27 08:00:44.448999936,0.005916203,0.05887526,-0.03728577,-0.1539102,-0.03872083,0.06443279,0.004502478,-0.01402489,-0.0002770929,1.3621467261500009,-2.2158171578590014,0.6351259000399996,-0.007660199,-0.004812913,-0.01915365
2023-11-27 08:00:44.461999872,0.006810893,0.05939952,-0.03752795,-0.1467413,-0.03754778,0.05673172,0.004664724,-0.01319347,0.0005010142,1.3668114501500006,-2.2290106278590014,0.6356269142399996,-0.007588401,-0.00496328,-0.01908805
2023-11-27 08:00:44.476000000,0.007786081,0.0597911,-0.03759373,-0.1424846,-0.04094578,0.05342931,0.004617139,-0.01273953,0.00139799,1.3714285891500009,-2.2417501578590016,0.6370249042399996,-0.007520318,-0.005128779,-0.01901814
2023-11-27 08:00:44.491000064,0.008880684,0.06023198,-0.03786813,-0.1439659,-0.04272847,0.05297252,0.004671229,-0.01303107,0.002211933,1.3760998181500006,-2.2547812278590014,0.6392368372399996,-0.007423114,-0.005339008,-0.01890687
2023-11-27 08:00:44.505000192,0.009991949,0.06049913,-0.03800095,-0.152671,-0.04030703,0.05206146,0.005285633,-0.01394142,0.003207206,1.3813854511500006,-2.268722647859001,0.6424440432399996,-0.007299695,-0.005595806,-0.01878433
2023-11-27 08:00:44.519000064,0.0113232,0.06100899,-0.03815993,-0.1619965,-0.04316113,0.05619439,0.005826448,-0.01553299,0.00415046,1.3872118991500006,-2.284255637859001,0.6465945032399996,-0.007185023,-0.005866101,-0.01864658
2023-11-27 08:00:44.530999808,0.0127679,0.06170468,-0.03872665,-0.1807473,-0.0491357,0.06903433,0.006519077,-0.01773059,0.005090896,1.3937309761500007,-2.3019862278590018,0.6516853992399996,-0.007066753,-0.006130295,-0.01850036
2023-11-27 08:00:44.546000128,0.01464781,0.06237561,-0.03922839,-0.2053875,-0.06264269,0.08905236,0.007380331,-0.02143759,0.005848876,1.4011113071500008,-2.323423817859002,0.6575342752399995,-0.006881747,-0.006641199,-0.01831437
2023-11-27 08:00:44.560000000,0.01697845,0.06332567,-0.03979872,-0.2424359,-0.07616413,0.1080059,0.008742427,-0.02642973,0.006533865,1.4098537341500008,-2.3498535478590017,0.6640681402399995,-0.006713748,-0.007181751,-0.01810474
2023-11-27 08:00:44.573999872,0.01970604,0.06461164,-0.04053218,-0.2914204,-0.09765506,0.1365558,0.01020983,-0.03288858,0.006701067,1.4200635641500008,-2.382742127859001,0.6707692072399994,-0.006564263,-0.007842177,-0.01788804
2023-11-27 08:00:44.588000000,0.02307734,0.06591454,-0.04143856,-0.3548897,-0.1198287,0.161377,0.011384,-0.04070653,0.006182184,1.4314475641500009,-2.423448657859001,0.6769513912399995,-0.006343286,-0.008582502,-0.01768317
2023-11-27 08:00:44.601999872,0.027032,0.06728023,-0.04177503,-0.4282176,-0.128739,0.1660547,0.01237475,-0.04814503,0.00542948,1.4438223141500008,-2.4715936878590017,0.6823808712399995,-0.006140031,-0.0093884,-0.01752521
2023-11-27 08:00:44.616000000,0.03100968,0.06859845,-0.04190767,-0.4882646,-0.1269605,0.1530416,0.01314318,-0.05482193,0.005094716,1.4569654941500008,-2.526415617859002,0.6874755872399995,-0.005960919,-0.01028018,-0.01732748
2023-11-27 08:00:44.628999936,0.03473668,0.06990664,-0.04219691,-0.5163521,-0.1238002,0.142795,0.01344168,-0.05957772,0.006115605,1.4704071741500009,-2.585993337859002,0.6935911922399994,-0.005772829,-0.0111541,-0.01710489
2023-11-27 08:00:44.642999808,0.03780553,0.07124725,-0.04256501,-0.5066503,-0.1323138,0.1417535,0.0131183,-0.06102949,0.008043632,1.4835254741500006,-2.647022827859002,0.7016348242399995,-0.005597483,-0.01195149,-0.01688688
2023-11-27 08:00:44.657000192,0.04030605,0.07250959,-0.04268514,-0.4671904,-0.1387672,0.1227341,0.01257134,-0.05865813,0.01004286,1.4960968141500006,-2.705680957859002,0.7116776842399994,-0.005427517,-0.01263268,-0.01662492
2023-11-27 08:00:44.672000000,0.04233129,0.07377078,-0.0427643,-0.4092577,-0.1415811,0.1000957,0.01168832,-0.05340045,0.01142029,1.5077851341500006,-2.759081407859002,0.7230979742399994,-0.005294453,-0.01318845,-0.01635781
2023-11-27 08:00:44.684999936,0.0438888,0.07474549,-0.04259852,-0.3462334,-0.1373496,0.07226074,0.01028753,-0.04667445,0.01207991,1.5180726641500006,-2.8057558578590016,0.7351778842399994,-0.005174153,-0.01371075,-0.01613636
2023-11-27 08:00:44.698999808,0.04530302,0.07565887,-0.04248223,-0.2989539,-0.1273317,0.04601045,0.008652134,-0.04131258,0.01149634,1.5267247981500007,-2.8470684378590017,0.7466742242399994,-0.005019661,-0.01426276,-0.01594657
2023-11-27 08:00:44.712000000,0.04678189,0.07648039,-0.04225532,-0.2606658,-0.1127208,0.0282665,0.006519474,-0.0366247,0.01003633,1.5332442721500008,-2.8836931378590016,0.7567105542399994,-0.004945524,-0.01472142,-0.01577299
2023-11-27 08:00:44.727000064,0.04783367,0.07702255,-0.04211625,-0.2292466,-0.09150501,0.02137223,0.004299565,-0.03268343,0.008385202,1.5375438371500008,-2.9163765678590017,0.7650957562399995,-0.004922215,-0.01516995,-0.01566139
2023-11-27 08:00:44.740000000,0.04910438,0.07744931,-0.04195753,-0.208959,-0.0708786,0.0153926,0.001550716,-0.02889653,0.006486973,1.5390945531500009,-2.9452730978590016,0.7715827292399995,-0.004975531,-0.01548208,-0.01558375
2023-11-27 08:00:44.755000064,0.04991172,0.07752523,-0.04198586,-0.1816972,-0.04526203,0.01477711,-0.001373253,-0.02454893,0.004434239,1.5377213001500007,-2.969822027859001,0.7760169682399994,-0.005057354,-0.01571313,-0.01555909
2023-11-27 08:00:44.769999872,0.05066703,0.07750531,-0.04173507,-0.1538525,-0.02379922,0.01412954,-0.004537332,-0.01937528,0.002450625,1.5331839681500008,-2.9891973078590017,0.7784675932399995,-0.005223408,-0.0158362,-0.01554146
2023-11-27 08:00:44.783000064,0.05113176,0.07717682,-0.04164579,-0.1219877,0.002938881,0.01331564,-0.007228556,-0.01408301,0.0005101411,1.5259554121500007,-3.003280317859001,0.7789777343399995,-0.005293742,-0.01605408,-0.0155198
2023-11-27 08:00:44.796000000,0.05147015,0.07695675,-0.04152621,-0.08964662,0.01999347,0.01140316,-0.009703394,-0.009114004,-0.001229557,1.5162520181500008,-3.0123943218590017,0.7777481773399995,-0.00549002,-0.01607138,-0.01559316
2023-11-27 08:00:44.809999872,0.05147462,0.07663965,-0.04136612,-0.0575267,0.0326362,0.004026059,-0.01135761,-0.004895681,-0.002812509,1.5048944081500009,-3.017290002859001,0.7749356683399995,-0.00569243,-0.01604807,-0.0156916
2023-11-27 08:00:44.824000000,0.05146957,0.07623033,-0.04132916,-0.03598925,0.0442038,-0.004057326,-0.01236244,-0.001373544,-0.00431005,1.4925319681500009,-3.0186635468590013,0.7706256183399995,-0.005793743,-0.01603787,-0.01575891
2023-11-27 08:00:44.838000128,0.05167203,0.07573721,-0.04094196,-0.02319044,0.05640078,-0.01474358,-0.01322481,0.001623763,-0.00549431,1.4793071581500008,-3.0170397838590013,0.7651313083399995,-0.005884714,-0.01604342,-0.01582911
2023-11-27 08:00:44.852000000,0.05151544,0.07526851,-0.04070011,-0.007409826,0.06397079,-0.02140582,-0.01401918,0.003834098,-0.006712694,1.4652879781500008,-3.0132056858590013,0.7584186143399996,-0.006040614,-0.0159836,-0.01594584
2023-11-27 08:00:44.864999936,0.05119814,0.07475804,-0.04058605,0.009665545,0.06807359,-0.0228234,-0.01442426,0.005006865,-0.007892856,1.4508637181500008,-3.0081988208590014,0.7505257583399996,-0.006252695,-0.01588945,-0.01612174
2023-11-27 08:00:44.879000064,0.05098397,0.0742943,-0.04036696,0.01980514,0.06465416,-0.02490109,-0.01471743,0.006119088,-0.00869165,1.436146288150001,-3.002079732859001,0.7418341083399995,-0.006469343,-0.01578828,-0.0162934
2023-11-27 08:00:44.894000128,0.0507875,0.0739793,-0.04031101,0.0292661,0.06027831,-0.01831262,-0.01431016,0.006266676,-0.009484217,1.421836128150001,-2.995813056859001,0.7323498913399995,-0.00667657,-0.01569989,-0.01645573
2023-11-27 08:00:44.907000064,0.05062572,0.07367018,-0.0403289,0.0322373,0.05564874,-0.01423313,-0.01392882,0.005182648,-0.01055644,1.4079073081500009,-2.990630408859001,0.7217934513399995,-0.006881244,-0.01564872,-0.01663755
2023-11-27 08:00:44.920999936,0.0507172,0.07314982,-0.04017337,0.02384376,0.05440915,-0.01172999,-0.01328633,0.003999225,-0.0118945,1.394620978150001,-2.9866311838590014,0.7098989513399995,-0.007062089,-0.0156294,-0.01686435
2023-11-27 08:00:44.935000064,0.05070512,0.07301573,-0.04003832,0.013248,0.05050843,-0.007943703,-0.01255116,0.00259318,-0.01364363,1.382069818150001,-2.984038003859001,0.6962553213399995,-0.007222269,-0.01563604,-0.01710219
2023-11-27 08:00:44.948999936,0.0506736,0.07265654,-0.04010313,0.007801081,0.04737365,-0.006124557,-0.01144538,0.001070949,-0.01538065,1.370624438150001,-2.9829670548590017,0.6808746713399995,-0.007345475,-0.01566394,-0.01738772
2023-11-27 08:00:44.963000064,0.05066219,0.07259279,-0.04002267,0.005265135,0.03315563,-0.004475118,-0.01047056,-0.0002086964,-0.01725905,1.360153878150001,-2.983175751259002,0.6636156213399994,-0.007366259,-0.01578227,-0.01774896
2023-11-27 08:00:44.976999936,0.05058423,0.07267562,-0.0400415,0.008570138,0.01869065,-0.005630136,-0.009168001,-0.0008788971,-0.01911604,1.3509858771500012,-2.984054648359002,0.6444995813399994,-0.007403001,-0.0158252,-0.01807177
2023-11-27 08:00:44.991000064,0.05039454,0.07275307,-0.03996487,0.01090211,0.003601101,-0.009566365,-0.00809228,-0.0005204392,-0.0207577,1.3428935971500011,-2.984575087559002,0.6237418813399994,-0.007496297,-0.01582322,-0.01840362
2023-11-27 08:00:45.005000192,0.05000767,0.0729216,-0.0399875,0.01968054,-0.007746738,-0.01251349,-0.007040665,-0.0002432541,-0.02268239,1.3358529321500012,-2.9848183416590017,0.6010594913399994,-0.007542685,-0.01585504,-0.01876668
2023-11-27 08:00:45.019000064,0.04989002,0.07331046,-0.03992826,0.01968497,-0.0226725,-0.01322263,-0.006311384,0.0007983131,-0.02473353,1.3295415481500013,-2.984020028559002,0.5763259613399994,-0.007647544,-0.01576274,-0.01912142
2023-11-27 08:00:45.032000000,0.04959922,0.07360776,-0.03982934,0.0237638,-0.03320514,-0.01714207,-0.005371811,0.002119519,-0.02665607,1.3241697371500012,-2.981900509559002,0.5496698913399993,-0.007694494,-0.01566652,-0.0195044
2023-11-27 08:00:45.046000128,0.04919139,0.07407102,-0.03980772,0.03247913,-0.04678346,-0.02282009,-0.004592819,0.003514886,-0.02879169,1.3195769181500012,-2.978385623559002,0.5208782013399993,-0.00774112,-0.01554598,-0.01991687
2023-11-27 08:00:45.060000000,0.04877437,0.07464796,-0.03976609,0.03786292,-0.05928784,-0.02183492,-0.00377615,0.00553961,-0.0301672,1.3158007681500012,-2.972846013559002,0.4907110013399993,-0.00779387,-0.01539135,-0.02031326
2023-11-27 08:00:45.075000064,0.04784904,0.07512861,-0.03973132,0.05904948,-0.0699394,-0.02846013,-0.003173996,0.008035783,-0.03123718,1.3126267721500011,-2.964810230559002,0.4594738213399993,-0.007811345,-0.01521949,-0.02072433
2023-11-27 08:00:45.088999936,0.0468337,0.07564573,-0.0397519,0.085367,-0.07758883,-0.03439688,-0.002653177,0.01196,-0.03154588,1.3099735951500011,-2.952850230559002,0.4279279413399993,-0.007800356,-0.01492007,-0.02115491
2023-11-27 08:00:45.102999808,0.04556999,0.07602571,-0.03967557,0.113555,-0.07446153,-0.0493968,-0.002351128,0.01666764,-0.03121094,1.3076224671500014,-2.9361825905590018,0.3967170013399993,-0.007761467,-0.01456609,-0.0215913
2023-11-27 08:00:45.117000192,0.04378274,0.07635571,-0.03951547,0.1577061,-0.07258344,-0.06004035,-0.002005916,0.02096676,-0.03004541,1.3056165511500013,-2.915215830559002,0.3666715913399993,-0.007736191,-0.01416895,-0.02199499
2023-11-27 08:00:45.130000128,0.04189038,0.07640423,-0.03933846,0.1953606,-0.06449544,-0.06902374,-0.002372524,0.02586923,-0.02848996,1.3032440271500012,-2.889346600559002,0.3381816313399993,-0.007790711,-0.01368332,-0.02233551
2023-11-27 08:00:45.144000000,0.03960896,0.07634586,-0.03932809,0.2389621,-0.04992776,-0.07295506,-0.003161198,0.03011651,-0.02665348,1.3000828291500013,-2.859230090559002,0.3115281513399993,-0.00788236,-0.01318775,-0.02269382
2023-11-27 08:00:45.157999872,0.03737278,0.0762607,-0.03972025,0.276703,-0.03715775,-0.05634984,-0.004798684,0.03401668,-0.02507129,1.2952841451500012,-2.8252134105590017,0.2864568613399993,-0.008052815,-0.01255774,-0.02303619
2023-11-27 08:00:45.171000064,0.03487828,0.0758158,-0.03982949,0.3092639,-0.02054156,-0.0502113,-0.005965705,0.03709075,-0.02329956,1.2893184401500013,-2.7881226605590017,0.2631573013399993,-0.008148991,-0.01189752,-0.02333802
2023-11-27 08:00:45.187000064,0.03226726,0.07552484,-0.03987836,0.3334324,-0.009268338,-0.06066522,-0.007001843,0.04045277,-0.02189116,1.2823165971500012,-2.747669890559002,0.2412661413399993,-0.008290298,-0.01123801,-0.02366483
2023-11-27 08:00:45.200000000,0.02943757,0.07505226,-0.04004605,0.3620766,0.002076603,-0.06450525,-0.007425933,0.04325294,-0.02098797,1.2748906641500013,-2.704416950559002,0.2202781713399993,-0.008407295,-0.01054873,-0.02398871
2023-11-27 08:00:45.212999936,0.02647103,0.07449429,-0.04006564,0.3848198,0.0163126,-0.07051296,-0.008438116,0.04584371,-0.02033316,1.2664525481500013,-2.6585732405590017,0.1999450113399993,-0.008593947,-0.00986548,-0.02433977
2023-11-27 08:00:45.227000064,0.02355164,0.07356966,-0.04005161,0.3984078,0.03126854,-0.07729678,-0.009886774,0.04787865,-0.0199739,1.2565657741500014,-2.6106945905590018,0.1799711113399993,-0.008633297,-0.009230831,-0.02476129
2023-11-27 08:00:45.243000064,0.02089996,0.07282306,-0.04023251,0.4053523,0.04708916,-0.0775373,-0.01093727,0.04854525,-0.01962866,1.2456285041500013,-2.5621493405590017,0.1603424513399993,-0.008730292,-0.008582843,-0.02516781
2023-11-27 08:00:45.255000064,0.01845421,0.0720903,-0.04022627,0.390427,0.05673714,-0.07614341,-0.011839,0.04818951,-0.01939239,1.233789504150001,-2.513959830559002,0.1409500613399993,-0.008897103,-0.00796981,-0.0255224
2023-11-27 08:00:45.269999872,0.01585234,0.07124539,-0.03992049,0.3785854,0.06795017,-0.07987352,-0.01224986,0.04621182,-0.01885516,1.2215396441500013,-2.467748010559002,0.1220949013399993,-0.0091144,-0.007405547,-0.02583734
2023-11-27 08:00:45.284000000,0.0131111,0.07025476,-0.039718,0.3755419,0.07585219,-0.09427606,-0.01284264,0.04536089,-0.01789886,1.2086970041500014,-2.422387120559002,0.1041960413399993,-0.009269726,-0.006766648,-0.0261676
2023-11-27 08:00:45.296000000,0.01018825,0.0692033,-0.03947427,0.3895041,0.0844364,-0.1050159,-0.01301729,0.04679118,-0.01670678,1.1956797141500013,-2.375595940559002,0.0874892613399993,-0.009411991,-0.006095799,-0.02653211
2023-11-27 08:00:45.311000064,0.007212038,0.06814723,-0.03921292,0.4068243,0.09548226,-0.1095686,-0.01318563,0.04785141,-0.01560991,1.1824940841500011,-2.327744530559002,0.0718793513399993,-0.00959048,-0.005502045,-0.0268993
2023-11-27 08:00:45.324999936,0.004711914,0.06685507,-0.03905048,0.402479,0.1083556,-0.1128993,-0.01317979,0.04728796,-0.01505827,1.1693142941500014,-2.2804565705590023,0.0568210813399993,-0.009737238,-0.004912572,-0.02718707
2023-11-27 08:00:45.338000128,0.002379698,0.06580877,-0.03873872,0.3799845,0.1153883,-0.1096135,-0.01302751,0.04446188,-0.0151937,1.1562867841500015,-2.2359946905590022,0.0416273813399993,-0.00994464,-0.004422886,-0.02751403
2023-11-27 08:00:45.352999936,0.0004539005,0.06477703,-0.03852017,0.3471874,0.1184944,-0.101102,-0.01250026,0.04105831,-0.01517363,1.1437865241500016,-2.1949363805590023,0.0264537513399993,-0.01009141,-0.003948353,-0.02782567
2023-11-27 08:00:45.367000064,-0.001733609,0.06367704,-0.03817438,0.3286632,0.1194144,-0.1002213,-0.01141979,0.03816433,-0.0146588,1.1323667341500017,-2.1567720505590025,0.0117949513399993,-0.01015516,-0.003498529,-0.02818621
2023-11-27 08:00:45.380000000,-0.003863739,0.06270202,-0.03797274,0.3213081,0.1166298,-0.09732991,-0.009797852,0.0363458,-0.01383289,1.1225688821500015,-2.1204262505590026,-0.0020379386600006,-0.010209,-0.003048653,-0.02851402
2023-11-27 08:00:45.394000128,-0.006081323,0.06172444,-0.03770068,0.3186886,0.1097086,-0.09925013,-0.008402875,0.03504486,-0.01258238,1.1141660071500017,-2.0853813905590024,-0.0146203186600006,-0.01027516,-0.002607307,-0.02875197
2023-11-27 08:00:45.408000000,-0.008321307,0.06092654,-0.03759402,0.32129,0.09932721,-0.08732785,-0.006966054,0.03432754,-0.01170448,1.1071999531500016,-2.0510538505590024,-0.0263247986600006,-0.01036666,-0.0020901,-0.02895468
2023-11-27 08:00:45.421999872,-0.01068765,0.06025603,-0.0376393,0.3274854,0.08514504,-0.08084479,-0.005101052,0.03472988,-0.0109646,1.1020989011500015,-2.0163239705590024,-0.0372893986600006,-0.01037063,-0.001604545,-0.02917818
2023-11-27 08:00:45.435000064,-0.01307453,0.05972797,-0.03768165,0.3316803,0.06608554,-0.07896831,-0.003058444,0.03467706,-0.01044689,1.0990404571500014,-1.9816469105590024,-0.0477362886600006,-0.01035435,-0.001175977,-0.02940178
2023-11-27 08:00:45.448999936,-0.01487566,0.05940686,-0.03745978,0.3169366,0.04718089,-0.07223851,-0.001114253,0.03351896,-0.0102547,1.0979262041500015,-1.9481279505590023,-0.0579909886600006,-0.0103549,-0.0007430976,-0.02959698
2023-11-27 08:00:45.463000064,-0.0166787,0.05908094,-0.03737853,0.2920193,0.03539664,-0.06675447,0.001118902,0.03122463,-0.01020321,1.0990451061500015,-1.9169033205590025,-0.0681941986600006,-0.01030391,-0.0004123054,-0.02978479
2023-11-27 08:00:45.477999872,-0.01812456,0.05899371,-0.03712964,0.2584389,0.0206467,-0.06749394,0.003242422,0.02881315,-0.01018736,1.1022875281500015,-1.8880901705590023,-0.0783815586600006,-0.01022168,-5.208072e-05,-0.02992412
2023-11-27 08:00:45.491000064,-0.01974801,0.05891803,-0.03694195,0.2394056,0.004341518,-0.06668044,0.005411768,0.02754742,-0.01007183,1.1076992961500016,-1.8605427505590024,-0.0884533886600006,-0.01005025,0.0003434801,-0.03014749
2023-11-27 08:00:45.505000192,-0.02153273,0.05901088,-0.03682449,0.2350246,-0.01631879,-0.06641334,0.007368419,0.02775875,-0.01009185,1.1150677151500017,-1.832784000559002,-0.0985452386600006,-0.009846974,0.00075067,-0.03037229
2023-11-27 08:00:45.520000000,-0.02314513,0.05923721,-0.03648234,0.2317425,-0.03561649,-0.06700914,0.009457707,0.02817013,-0.01002398,1.1245254221500016,-1.8046138705590025,-0.1085692186600006,-0.009670418,0.001140029,-0.03054087
2023-11-27 08:00:45.532999936,-0.02479303,0.05956902,-0.03629504,0.2295762,-0.05137244,-0.07000668,0.01122306,0.0271461,-0.01023248,1.1357484821500017,-1.7774677705590023,-0.1188016986600006,-0.009480033,0.001450314,-0.0306694
2023-11-27 08:00:45.546999808,-0.02639148,0.05983442,-0.035799,0.2228366,-0.05619333,-0.08585245,0.01289924,0.02533369,-0.01030663,1.1486477221500018,-1.7521340805590022,-0.1291083286600006,-0.009294201,0.001717242,-0.03080674
2023-11-27 08:00:45.560000000,-0.02844403,0.06007041,-0.03515472,0.2306166,-0.0622516,-0.0956606,0.01396609,0.02310977,-0.01011143,1.1626138121500018,-1.7290243105590022,-0.1392197586600006,-0.009084359,0.001932693,-0.03099158
2023-11-27 08:00:45.575000064,-0.03074673,0.06024268,-0.03468062,0.2582511,-0.06842087,-0.110291,0.01491993,0.02154132,-0.009112113,1.1775337421500018,-1.707482990559002,-0.1483318716600006,-0.008819479,0.002207049,-0.03111746
2023-11-27 08:00:45.588999936,-0.03334641,0.0604659,-0.03442155,0.2923928,-0.06933461,-0.1102864,0.01620694,0.02045303,-0.007434822,1.1937406821500018,-1.687029960559002,-0.1557666936600006,-0.008582331,0.002413182,-0.03120282
2023-11-27 08:00:45.602999808,-0.03561001,0.06068175,-0.03425387,0.3042272,-0.07055661,-0.1015464,0.01697935,0.01881158,-0.005894205,1.2107200321500018,-1.668218380559002,-0.1616608986600006,-0.008335032,0.00259665,-0.03125228
2023-11-27 08:00:45.617000192,-0.03735185,0.06086534,-0.03427236,0.2903329,-0.0705881,-0.07621583,0.01762024,0.01602068,-0.004747936,1.228340272150002,-1.652197700559002,-0.1664088346600006,-0.008050896,0.002758993,-0.03130538
2023-11-27 08:00:45.631000064,-0.0387161,0.06125364,-0.03453678,0.2598288,-0.06891959,-0.04738475,0.01812925,0.01323606,-0.003863034,1.246469522150002,-1.638961640559002,-0.1702718686600006,-0.007783428,0.002939415,-0.03131464
2023-11-27 08:00:45.644000000,-0.03976911,0.06182626,-0.03490359,0.2203341,-0.07011896,-0.02192005,0.01847301,0.01243953,-0.003122293,1.264942532150002,-1.626522110559002,-0.1733941616600006,-0.007531807,0.003210514,-0.03133956
2023-11-27 08:00:45.657999872,-0.04069018,0.06223461,-0.03524147,0.1846241,-0.07249057,0.001647503,0.01874295,0.01339718,-0.002669464,1.283685482150002,-1.613124930559002,-0.1760636256600006,-0.007253062,0.003471331,-0.0313434
2023-11-27 08:00:45.673000192,-0.04131418,0.06281979,-0.03550804,0.1523351,-0.08035843,0.01549292,0.01858035,0.01393842,-0.00309449,1.3022658321500018,-1.5991865105590022,-0.1791581156600006,-0.006984692,0.003680832,-0.03138103
2023-11-27 08:00:45.687000064,-0.04162928,0.06354591,-0.03569581,0.1118388,-0.0874523,0.02236951,0.01806476,0.01369475,-0.004243322,1.3203305921500017,-1.5854917605590022,-0.1834014376600006,-0.006753732,0.003848132,-0.0314395
2023-11-27 08:00:45.700000000,-0.04190158,0.06425934,-0.03567006,0.07555259,-0.09356177,0.01872209,0.01726082,0.01348104,-0.005616008,1.3375914121500017,-1.5720107205590022,-0.1890174456600006,-0.006540984,0.004010614,-0.03150535
2023-11-27 08:00:45.714999808,-0.04230319,0.06478241,-0.03546603,0.05897986,-0.101227,0.006272234,0.01609003,0.01394624,-0.007028318,1.3536814421500016,-1.558064480559002,-0.1960457636600006,-0.006283831,0.004210141,-0.03158713
2023-11-27 08:00:45.729000192,-0.04293567,0.06550816,-0.03525624,0.05708513,-0.1039817,-0.008304002,0.01520064,0.01498637,-0.008020307,1.3688820821500016,-1.543078110559002,-0.2040660706600006,-0.006113172,0.004427716,-0.03167686
2023-11-27 08:00:45.742000128,-0.0437097,0.06623037,-0.03496299,0.06744165,-0.1072302,-0.02232968,0.01386339,0.016535,-0.008638208,1.3827454721500017,-1.5265431105590022,-0.2127042786600007,-0.00597214,0.004693818,-0.03175934
2023-11-27 08:00:45.756000000,-0.04483044,0.06688891,-0.03481742,0.09194311,-0.1120065,-0.03196524,0.01215078,0.01834246,-0.008906109,1.3948962521500017,-1.5082006505590022,-0.2216103876600006,-0.005844951,0.004989843,-0.03186223
2023-11-27 08:00:45.768999936,-0.04619642,0.06744911,-0.0346098,0.1206766,-0.1104974,-0.03801247,0.01044519,0.02017231,-0.008665774,1.4053414421500017,-1.4880283405590022,-0.2302761616600006,-0.005739532,0.005267046,-0.03200648
2023-11-27 08:00:45.784000000,-0.04735073,0.0679332,-0.03449427,0.1363969,-0.106957,-0.03972311,0.008749146,0.02147824,-0.00822055,1.4140905881500017,-1.4665501005590025,-0.2384967116600006,-0.005636971,0.005563489,-0.03212201
2023-11-27 08:00:45.798000128,-0.04850839,0.06841949,-0.03417933,0.1453683,-0.1017005,-0.04300063,0.006948935,0.0211555,-0.00780493,1.4210395231500017,-1.4453946005590022,-0.2463016416600006,-0.005596254,0.005805515,-0.03219663
2023-11-27 08:00:45.811000064,-0.04937793,0.06869496,-0.03398887,0.138291,-0.09093561,-0.04707988,0.005348359,0.02001377,-0.007483268,1.4263878821500018,-1.425380830559002,-0.2537849096600006,-0.005525064,0.006027566,-0.03227375
2023-11-27 08:00:45.824999936,-0.05011891,0.06909502,-0.03376216,0.1242331,-0.07498463,-0.05542769,0.003421397,0.01764442,-0.007744013,1.429809279150002,-1.407736410559002,-0.2615289226600006,-0.005498257,0.006210395,-0.03235609
2023-11-27 08:00:45.840000000,-0.05090417,0.0691077,-0.03325551,0.1045944,-0.06297183,-0.05738281,0.001186769,0.01531785,-0.008090807,1.430996048150002,-1.392418560559002,-0.2696197296600006,-0.005537845,0.006293655,-0.03245899
2023-11-27 08:00:45.854000128,-0.051244,0.06915461,-0.03300326,0.08774523,-0.04311515,-0.05771664,-0.0004823897,0.01276578,-0.00887942,1.430513658450002,-1.379652780559002,-0.2784991496600006,-0.005582038,0.006381347,-0.03259043
2023-11-27 08:00:45.865999872,-0.05144777,0.06908023,-0.03296094,0.06344337,-0.02888559,-0.04493747,-0.002200841,0.01058438,-0.009797156,1.428312817450002,-1.369068400559002,-0.2882963056600006,-0.005652167,0.006478181,-0.0327533
2023-11-27 08:00:45.880000000,-0.0517085,0.0691765,-0.03288455,0.04836251,-0.01979806,-0.03197796,-0.003768713,0.008778435,-0.01054153,1.424544104450002,-1.360289965559002,-0.2988378356600006,-0.005746234,0.006556578,-0.0329082
2023-11-27 08:00:45.895000064,-0.05192234,0.06909676,-0.03296441,0.04257941,-0.009985907,-0.0222423,-0.004698243,0.007547184,-0.01108051,1.419845861450002,-1.352742781559002,-0.3099183456600006,-0.005863298,0.006652243,-0.03306931
2023-11-27 08:00:45.908000000,-0.05216467,0.06909446,-0.03300828,0.03820217,-0.003603572,-0.01344855,-0.005612371,0.006698774,-0.01119429,1.414233490450002,-1.346044007559002,-0.3211126356600006,-0.00599372,0.006741454,-0.03321712
2023-11-27 08:00:45.921999872,-0.05244613,0.06901163,-0.03290191,0.03567011,0.001939383,-0.009697303,-0.006178346,0.006644905,-0.01105773,1.408055144450002,-1.339399102559002,-0.3321703656600006,-0.006101076,0.006829182,-0.03337208
2023-11-27 08:00:45.936000000,-0.05288679,0.06891531,-0.03292553,0.04905861,0.0007666035,-0.01311889,-0.00658288,0.006301997,-0.01067349,1.401472264450002,-1.333097105559002,-0.3428438556600006,-0.006202474,0.006913725,-0.03352081
2023-11-27 08:00:45.952000000,-0.0532946,0.0688899,-0.03292122,0.05233362,0.001772551,-0.01820328,-0.006507283,0.006887468,-0.01020594,1.394964981450002,-1.326209637559002,-0.3530497956600006,-0.006284341,0.007001614,-0.03364904
2023-11-27 08:00:45.964000000,-0.05393288,0.06899072,-0.0331171,0.0657575,-0.002822248,-0.0110882,-0.006582549,0.006585092,-0.01015719,1.388382432450002,-1.319624545559002,-0.3632069856600006,-0.00635663,0.007050977,-0.03377661
2023-11-27 08:00:45.977999872,-0.0543467,0.06905377,-0.03321506,0.06589247,-0.008574658,0.001305536,-0.006603744,0.006350223,-0.01048641,1.381778688450002,-1.313274322559002,-0.3736933956600006,-0.006430324,0.007094427,-0.033917
2023-11-27 08:00:45.992999936,-0.05466273,0.06904233,-0.03331523,0.06146973,-0.0111754,0.003101762,-0.006118544,0.005433223,-0.01144108,1.375660144450002,-1.307841099559002,-0.3851344756600006,-0.006502304,0.007157174,-0.03409914
2023-11-27 08:00:46.006000128,-0.05485767,0.06925809,-0.03336923,0.04758139,-0.01505797,0.003622869,-0.005788174,0.004395135,-0.01265647,1.369871970450002,-1.303445964559002,-0.3977909456600006,-0.006580114,0.007198686,-0.03429489
2023-11-27 08:00:46.020000000,-0.05512068,0.06926143,-0.03336897,0.0445437,-0.01453022,0.004453146,-0.00555355,0.003194136,-0.01402819,1.364318420450002,-1.300251828559002,-0.4118191356600006,-0.006697424,0.00720401,-0.03457362
2023-11-27 08:00:46.033999872,-0.05556409,0.0693747,-0.03347333,0.04235578,-0.01641933,0.005815935,-0.005560305,0.002797553,-0.01526705,1.358758115450002,-1.297454275559002,-0.4270861856600006,-0.006819271,0.007229886,-0.03485817
2023-11-27 08:00:46.046999808,-0.0558912,0.06948008,-0.03349895,0.04611513,-0.01575981,0.002772725,-0.00526707,0.002514352,-0.01643578,1.3534910454500022,-1.294939923559002,-0.4435219656600006,-0.006894957,0.007257869,-0.03512141
2023-11-27 08:00:46.061000192,-0.05625866,0.0695242,-0.03378223,0.04761542,-0.01627609,0.004569765,-0.005084184,0.002931355,-0.01727441,1.3484068614500022,-1.292008568559002,-0.4607963756600006,-0.006958067,0.007328556,-0.03538023
2023-11-27 08:00:46.075000064,-0.05657398,0.06957552,-0.03383138,0.05142944,-0.01189095,0.007626923,-0.004569042,0.003279539,-0.01774047,1.3438378194500022,-1.288729029559002,-0.4785368456600006,-0.007001176,0.007359494,-0.0356288
2023-11-27 08:00:46.089999872,-0.0568476,0.0696172,-0.03403966,0.05158591,-0.009688867,0.006806075,-0.004083049,0.003305119,-0.0183291,1.3397547704500024,-1.285423910559002,-0.4968659456600006,-0.007025205,0.007363625,-0.03588181
2023-11-27 08:00:46.104000000,-0.05705539,0.06957519,-0.03432947,0.04577087,-0.003855439,0.01464308,-0.003284378,0.002700091,-0.01908492,1.3364703924500023,-1.282723819559002,-0.5159508656600006,-0.007036548,0.00735558,-0.03615573
2023-11-27 08:00:46.117000192,-0.05717097,0.06968239,-0.03452405,0.03560153,-0.001321985,0.0208148,-0.002790447,0.002237707,-0.01988869,1.3336799454500023,-1.280486112559002,-0.5358395556600006,-0.007062882,0.00736027,-0.03647319
2023-11-27 08:00:46.130000128,-0.05723639,0.06969276,-0.03477592,0.02850652,-0.0005014632,0.0271116,-0.002528236,0.002282051,-0.02065328,1.3311517094500025,-1.2782040615590022,-0.5564928356600006,-0.007094,0.007442431,-0.03676282
2023-11-27 08:00:46.144000000,-0.05758046,0.0694733,-0.03498951,0.03455932,0.004998565,0.02532863,-0.002018041,0.002588335,-0.02131399,1.3291336684500024,-1.2756157265590022,-0.5778068256600006,-0.007062666,0.007487685,-0.03708949
2023-11-27 08:00:46.157999872,-0.05798075,0.06953149,-0.0352225,0.04734793,0.005953357,0.02233038,-0.00184097,0.00353311,-0.02182451,1.3272926984500024,-1.2720826165590022,-0.5996313356600006,-0.007108282,0.007571105,-0.03738887
2023-11-27 08:00:46.172000000,-0.05868103,0.06930053,-0.03531957,0.06207413,0.009334248,0.01257517,-0.001637652,0.004684509,-0.02230094,1.3256550464500023,-1.2673981075590022,-0.6219322756600006,-0.007093158,0.00760413,-0.03770847
2023-11-27 08:00:46.187000064,-0.05921084,0.06915763,-0.03524465,0.07007912,0.01222989,-0.001168898,-0.001519393,0.006000742,-0.02262576,1.3241356534500024,-1.2613973655590025,-0.6445580356600007,-0.007140357,0.00771161,-0.03804995
2023-11-27 08:00:46.200000000,-0.05987611,0.06876476,-0.03517047,0.08044855,0.01879183,-0.01271395,-0.001031803,0.006359059,-0.02304281,1.3231038504500023,-1.2550383065590025,-0.6676008456600007,-0.00712784,0.00779713,-0.03840047
2023-11-27 08:00:46.213999872,-0.0603932,0.06863274,-0.03551911,0.08494809,0.01849837,-0.008282477,-0.0008953894,0.006158705,-0.02330297,1.3222084610500024,-1.2488796015590022,-0.6909038156600007,-0.007150568,0.007918579,-0.03868246
2023-11-27 08:00:46.228000000,-0.06080463,0.06852862,-0.03561833,0.0812358,0.02177433,0.0007748757,-0.0002822005,0.00600147,-0.02364626,1.3219262605500024,-1.2428781315590025,-0.7145500756600007,-0.007187612,0.008057389,-0.0389598
2023-11-27 08:00:46.242000128,-0.06121831,0.06824107,-0.03570567,0.07752253,0.02189111,-0.004913555,0.0005174777,0.005566078,-0.02405684,1.3224437382500025,-1.2373120535590023,-0.7386069156600007,-0.007134821,0.008153637,-0.03930686
2023-11-27 08:00:46.256999936,-0.06171581,0.06805472,-0.03574473,0.07262354,0.01997272,-0.009513907,0.0009876215,0.004983427,-0.02451894,1.3234313597500025,-1.2323286265590023,-0.7631258556600007,-0.007130105,0.008192785,-0.03967951
2023-11-27 08:00:46.269999872,-0.06206618,0.06785177,-0.03578761,0.06853907,0.02187775,-0.009391009,0.001752928,0.004400147,-0.02495959,1.3251842877500024,-1.2279284795590024,-0.7880854456600007,-0.007082563,0.008265651,-0.04004043
2023-11-27 08:00:46.284000000,-0.06250683,0.06755111,-0.03577005,0.06633864,0.0266193,-0.008269076,0.002936994,0.003919289,-0.02518079,1.3281212817500023,-1.2240091905590025,-0.8132662356600007,-0.007022966,0.008312027,-0.04039494
2023-11-27 08:00:46.298000128,-0.06289616,0.06744871,-0.03593744,0.0610031,0.02224099,-0.008652481,0.003736303,0.003523644,-0.02544606,1.3318575847500025,-1.2204855465590023,-0.8387122956600007,-0.006979857,0.008349903,-0.04069052
2023-11-27 08:00:46.312000000,-0.06320979,0.06726354,-0.03602559,0.05782302,0.01941579,-0.006016951,0.00469799,0.003045223,-0.02571913,1.3365555747500022,-1.2174403235590026,-0.8644314256600008,-0.006912272,0.008415718,-0.0409852
2023-11-27 08:00:46.324999936,-0.06356806,0.06720699,-0.03629623,0.05921634,0.01949973,0.003592577,0.006008786,0.002523909,-0.02611742,1.3425643607500022,-1.2149164145590026,-0.8905488456600007,-0.006814148,0.00846882,-0.04137247
2023-11-27 08:00:46.339000064,-0.06400133,0.06711936,-0.03633602,0.05640405,0.01340224,0.005732493,0.006795637,0.002268767,-0.02639529,1.349359997750002,-1.212647647559003,-0.9169441356600008,-0.006697398,0.008472289,-0.04175254
2023-11-27 08:00:46.354000128,-0.06424023,0.06703843,-0.03665481,0.0529344,0.01039346,0.01173263,0.007878453,0.002045239,-0.02658204,1.3572384507500022,-1.2106024085590026,-0.9435261756600006,-0.00654142,0.00854147,-0.0421423
2023-11-27 08:00:46.367000064,-0.06456064,0.06706372,-0.03682637,0.05473727,0.007524396,0.01648392,0.009004598,0.001753968,-0.02681545,1.366243048750002,-1.2088484405590023,-0.9703416256600006,-0.006421786,0.008623969,-0.04253944
2023-11-27 08:00:46.380999936,-0.06505161,0.06700036,-0.0370556,0.05695592,0.001627622,0.01640891,0.009939304,0.002121499,-0.0269525,1.376182352750002,-1.2067269415590025,-0.9972941256600006,-0.006227676,0.008690154,-0.04293672
2023-11-27 08:00:46.395000064,-0.06549253,0.0671986,-0.03722997,0.06148167,-0.005927485,0.01778274,0.01077274,0.002671484,-0.02713967,1.386955092750002,-1.2040554575590026,-1.0244337956600007,-0.00608933,0.00875814,-0.0433105
2023-11-27 08:00:46.408999936,-0.06593873,0.06732762,-0.0373746,0.06345858,-0.01170914,0.01667144,0.01149557,0.003112301,-0.02726778,1.398450662750002,-1.2009431565590023,-1.0517015756600008,-0.005917951,0.008814421,-0.04369336
2023-11-27 08:00:46.423000064,-0.06629499,0.06742734,-0.03736172,0.06171876,-0.01630965,0.008854928,0.01188431,0.003284524,-0.0275806,1.410334972750002,-1.1976586325590026,-1.0792821756600008,-0.005774643,0.008884781,-0.04403383
2023-11-27 08:00:46.436999936,-0.0667704,0.06751852,-0.03746828,0.05703395,-0.01726648,0.004348883,0.01230372,0.003485729,-0.02764475,1.422638692750002,-1.1941729035590023,-1.106926925660001,-0.00560911,0.008941837,-0.04435981
2023-11-27 08:00:46.451000064,-0.06711011,0.06757106,-0.03760172,0.05775978,-0.01760154,0.007459996,0.01273017,0.003872295,-0.02761567,1.435368862750002,-1.1903006085590024,-1.134542595660001,-0.005438931,0.009065511,-0.04469216
2023-11-27 08:00:46.464999936,-0.06762113,0.06773855,-0.03761916,0.05896844,-0.0219181,0.002314763,0.01291973,0.004382251,-0.02738071,1.4482885927500018,-1.1859183575590024,-1.1619233056600011,-0.00524905,0.009127542,-0.04505952
2023-11-27 08:00:46.477999872,-0.06805377,0.06791238,-0.03762145,0.06326755,-0.02279486,0.002293137,0.01354863,0.004532502,-0.02701788,1.4618372227500018,-1.1813858555590024,-1.1889411856600012,-0.005076841,0.009198454,-0.04540861
2023-11-27 08:00:46.492000000,-0.06849,0.06800951,-0.03787564,0.06171689,-0.02264989,0.004897596,0.01388082,0.004602002,-0.02649787,1.4757180427500018,-1.1767838535590025,-1.2154390556600012,-0.004867259,0.009283343,-0.04573858
2023-11-27 08:00:46.507000064,-0.06887028,0.06828156,-0.03802278,0.05699081,-0.02520661,0.01015634,0.01382567,0.004352864,-0.02602728,1.4895437127500015,-1.1724309895590026,-1.2414663356600013,-0.004710753,0.009334559,-0.04605963
2023-11-27 08:00:46.520000000,-0.06916994,0.06831983,-0.03796094,0.05073925,-0.02483069,0.007290896,0.01367544,0.004140762,-0.02544062,1.5032191527500018,-1.1682902275590026,-1.2669069556600012,-0.004502054,0.009410979,-0.04638439
2023-11-27 08:00:46.533999872,-0.0693529,0.06842506,-0.03802633,0.04585198,-0.02033059,0.002268619,0.01370206,0.004038103,-0.02462989,1.5169212127500018,-1.1642521245590025,-1.2915368456600012,-0.004324712,0.00949946,-0.04668877
2023-11-27 08:00:46.548000000,-0.06968605,0.06841588,-0.03800791,0.04356116,-0.01868176,0.0007873561,0.01322798,0.004228516,-0.02357776,1.5301491927500015,-1.1600236085590026,-1.3151146056600012,-0.004143298,0.009577548,-0.04697179
2023-11-27 08:00:46.562000128,-0.070063,0.06836694,-0.03807794,0.04711455,-0.01160861,-0.003793405,0.01299436,0.004509485,-0.0224955,1.5431435527500017,-1.1555141235590023,-1.3376101056600012,-0.003990229,0.009675087,-0.04721189
2023-11-27 08:00:46.576999936,-0.07038742,0.06834306,-0.03811314,0.047978,-0.007443322,-0.003609455,0.01255352,0.004706293,-0.0213539,1.5556970727500017,-1.1508078305590026,-1.3589640056600012,-0.003867686,0.009760249,-0.04743057
2023-11-27 08:00:46.589999872,-0.07063817,0.06829759,-0.03804197,0.04276022,-0.0007571864,-0.007263753,0.01229004,0.004859546,-0.02028153,1.5679871127500016,-1.1459482845590026,-1.3792455356600013,-0.003725119,0.009831976,-0.0476958
2023-11-27 08:00:46.602999808,-0.07080851,0.06806672,-0.03809011,0.03730856,0.004696863,-0.006542187,0.01206213,0.004424484,-0.01938894,1.5800492427500017,-1.1415238005590025,-1.398634475660001,-0.003529459,0.009865632,-0.04795147
2023-11-27 08:00:46.618000128,-0.07077342,0.0679346,-0.03814732,0.02578137,0.01135026,-0.004289759,0.01190904,0.003642672,-0.01837559,1.5919582827500014,-1.1378811285590025,-1.417010065660001,-0.003369529,0.009909128,-0.0482103
2023-11-27 08:00:46.631000064,-0.07085141,0.06794704,-0.03819499,0.01677053,0.01742263,-0.0005111808,0.011678,0.002553585,-0.01732206,1.6036362827500017,-1.1353275435590025,-1.4343321256600012,-0.003263224,0.009909024,-0.04844541
2023-11-27 08:00:46.644999936,-0.07075901,0.06773111,-0.03824116,0.01039294,0.01968068,0.003424803,0.01120876,0.001508063,-0.01622456,1.6148450427500014,-1.1338194805590025,-1.4505566856600012,-0.003071688,0.009953875,-0.04868805
2023-11-27 08:00:46.658999808,-0.07081123,0.06753547,-0.03836119,0.005458591,0.02382503,0.007161453,0.01084424,0.0008289287,-0.01478904,1.6256892827500014,-1.1329905518590024,-1.465345725660001,-0.002928562,0.009956742,-0.04887654
2023-11-27 08:00:46.673000192,-0.07096501,0.06728613,-0.03844801,0.008409945,0.02662498,0.00339657,0.01031371,0.001111187,-0.0131321,1.6360029927500013,-1.1318793648590024,-1.478477825660001,-0.002799023,0.00998183,-0.0490413
2023-11-27 08:00:46.688000000,-0.07119311,0.06687772,-0.03830793,0.02607659,0.02789835,-0.01164965,0.009636317,0.0012154,-0.01130584,1.6456393097500013,-1.1306639648590024,-1.489783665660001,-0.002695914,0.009991264,-0.04917205
2023-11-27 08:00:46.700000000,-0.07158439,0.06669018,-0.03832139,0.03549882,0.03140912,-0.01247752,0.008894773,0.00173027,-0.009725412,1.6545340827500012,-1.1289336948590023,-1.499509077660001,-0.00261455,0.01003177,-0.04925719
2023-11-27 08:00:46.713999872,-0.07171792,0.06629297,-0.03846207,0.03563682,0.03454569,-0.01000513,0.008079281,0.002141327,-0.00832972,1.6626133637500011,-1.1267923678590026,-1.5078387976600012,-0.00254216,0.01008184,-0.04934501
2023-11-27 08:00:46.728000000,-0.07190201,0.06616092,-0.03871161,0.0327533,0.03474091,0.0005702023,0.00741591,0.001829682,-0.007273659,1.670029273750001,-1.1249626858590025,-1.5151124566600012,-0.002451863,0.01011629,-0.04943425
2023-11-27 08:00:46.742000128,-0.07184598,0.06596379,-0.03895819,0.02512977,0.03375997,0.01107224,0.00707475,0.001346487,-0.00624461,1.6771040237500012,-1.1236161988590023,-1.5213570666600011,-0.002361163,0.01014,-0.04951258
2023-11-27 08:00:46.756000000,-0.07182495,0.06585188,-0.03895508,0.01348477,0.03089274,0.006923045,0.006702841,0.001199013,-0.005027991,1.6838068647500013,-1.1224171858590026,-1.526385057660001,-0.002275366,0.01019448,-0.04959267
2023-11-27 08:00:46.770999808,-0.07188617,0.06579915,-0.03905697,0.01096172,0.02379898,0.006906551,0.005723006,0.00123295,-0.003828868,1.6895298707500013,-1.1211842358590027,-1.5302139256600011,-0.002213094,0.01026985,-0.04966092
2023-11-27 08:00:46.785000192,-0.07195588,0.06567587,-0.03902409,0.01343255,0.01908176,0.002651054,0.004717976,0.0018008,-0.002873966,1.6942478467500013,-1.119383435859003,-1.533087891660001,-0.002168156,0.01033117,-0.04970798
2023-11-27 08:00:46.798000128,-0.07205689,0.06561279,-0.03908907,0.01416288,0.01242217,0.001931089,0.003727246,0.002310246,-0.001914494,1.6979750927500012,-1.1170731898590027,-1.535002385660001,-0.002136763,0.01037953,-0.04971853
2023-11-27 08:00:46.811000064,-0.07215361,0.06560911,-0.03910661,0.014096,0.007013878,0.00149311,0.002651487,0.002455828,-0.001213194,1.7006265797500013,-1.1146173618590027,-1.536215579660001,-0.00212381,0.01041976,-0.04971959
2023-11-27 08:00:46.828000000,-0.07220135,0.06561734,-0.03910206,0.01096407,0.003337352,0.0008066106,0.001394102,0.002061142,-0.0005564888,1.7020206817500012,-1.1125562198590029,-1.536772068460001,-0.002153818,0.01046378,-0.04969876
2023-11-27 08:00:46.839000064,-0.07222228,0.06566739,-0.03895091,0.005762173,-0.002953947,-0.0062122,-0.0001337492,0.001463881,0.0001899192,1.7018869325500012,-1.1110923388590026,-1.536582149260001,-0.002211723,0.01048353,-0.04966135
2023-11-27 08:00:46.854000128,-0.07231392,0.06562857,-0.03870457,0.005985103,-0.003670295,-0.01840465,-0.001352608,0.0007157055,0.001156017,1.7005343245500013,-1.1103766333590026,-1.535426132260001,-0.002266329,0.01046715,-0.04962116
2023-11-27 08:00:46.867000064,-0.07236664,0.06564237,-0.03861254,0.005229645,-0.00468012,-0.01611669,-0.002663261,0.0003792797,0.002591858,1.6978710635500014,-1.1099973536590029,-1.532834274260001,-0.00233078,0.01045828,-0.04955398
2023-11-27 08:00:46.880999936,-0.07255837,0.06561393,-0.03840942,0.01013649,-0.005475404,-0.02279389,-0.004090916,0.0001554134,0.004006214,1.6937801475500014,-1.1098419402590027,-1.528828060260001,-0.002417892,0.01044302,-0.04947805
2023-11-27 08:00:46.895000064,-0.07269631,0.06555222,-0.03826764,0.01134623,-0.003511394,-0.02400759,-0.005373804,0.0005340474,0.005544612,1.6884063435500014,-1.1093078928590028,-1.523283448260001,-0.002515309,0.01045441,-0.04942539
2023-11-27 08:00:46.908000000,-0.07282986,0.06545125,-0.03812314,0.01253284,-0.0004214806,-0.02622498,-0.006662118,0.0006421932,0.0070972,1.6817442255500017,-1.1086656996590027,-1.516186248260001,-0.002633113,0.01046133,-0.04935266
2023-11-27 08:00:46.921999872,-0.07281607,0.06525411,-0.03796909,0.00865222,0.003677356,-0.02720171,-0.00796171,0.0002137261,0.008624323,1.6737825155500017,-1.1084519735590028,-1.507561925260001,-0.002771817,0.01044488,-0.04922909
2023-11-27 08:00:46.936000000,-0.07273388,0.06515467,-0.037775,0.001300642,0.01282632,-0.02809518,-0.008734035,-0.0005771752,0.01010406,1.6650484805500014,-1.1090291487590027,-1.497457865260001,-0.002910905,0.01040601,-0.04906171
2023-11-27 08:00:46.951000064,-0.07254946,0.06492759,-0.03748849,-0.01220539,0.01886101,-0.02893019,-0.009644198,-0.001082133,0.01177198,1.6554042825500015,-1.1101112817590026,-1.485685885260001,-0.003082719,0.01036772,-0.04887329
2023-11-27 08:00:46.963000064,-0.0723183,0.06473112,-0.03766084,-0.01585928,0.02352597,-0.01564233,-0.01048697,-0.001962814,0.01327468,1.6449173125500014,-1.1120740957590027,-1.472411205260001,-0.003284343,0.01034899,-0.04865709
2023-11-27 08:00:46.976999936,-0.07225059,0.0645059,-0.03775784,-0.01943667,0.02717559,-0.005769491,-0.01118409,-0.002325354,0.01505202,1.6337332225500014,-1.1143994497590026,-1.457359185260001,-0.003492497,0.01033201,-0.04841436
2023-11-27 08:00:46.992000000,-0.07204573,0.06433219,-0.03764919,-0.02330021,0.02900103,-0.004747092,-0.01137594,-0.001913295,0.01689408,1.6223572825500014,-1.1163127447590029,-1.440465105260001,-0.003664944,0.01031089,-0.04810304
2023-11-27 08:00:47.005000192,-0.07191513,0.06403981,-0.03748123,-0.01795593,0.03032402,-0.0113309,-0.01162842,-0.001330128,0.0187613,1.6107288625500014,-1.1176428727590026,-1.421703805260001,-0.003829289,0.01031653,-0.04781021
2023-11-27 08:00:47.019000064,-0.07199874,0.06378914,-0.03726518,-0.01128936,0.03263849,-0.02252929,-0.01190327,-0.0007796054,0.02046659,1.5988255925500017,-1.1184224781590026,-1.401237215260001,-0.004034165,0.01029647,-0.04755855
2023-11-27 08:00:47.035000064,-0.07186731,0.06355406,-0.03730146,-0.01043363,0.03028242,-0.02180634,-0.01227212,-0.0005715786,0.02187305,1.5865534725500017,-1.1189940567590029,-1.379364165260001,-0.004198935,0.0103143,-0.04730014
2023-11-27 08:00:47.048999936,-0.0718355,0.06345554,-0.03696502,-0.01381435,0.02778259,-0.02455425,-0.01219385,-0.0008196802,0.02316855,1.5743596225500014,-1.1198137369590029,-1.356195615260001,-0.004428152,0.01028374,-0.04701994
2023-11-27 08:00:47.062000128,-0.07140227,0.06319073,-0.03687334,-0.02291367,0.02728958,-0.02036691,-0.01232726,-0.001486008,0.02438457,1.5620323625500014,-1.1212997449590028,-1.331811045260001,-0.004583526,0.01026809,-0.04666055
2023-11-27 08:00:47.075000064,-0.0712003,0.06299755,-0.03686919,-0.02672201,0.02685392,-0.01737164,-0.01225702,-0.001875116,0.02586741,1.5497753425500014,-1.1231748609590029,-1.305943635260001,-0.004723411,0.01024437,-0.04625764
2023-11-27 08:00:47.088999936,-0.0712532,0.06288885,-0.03672734,-0.02220048,0.02589304,-0.01626643,-0.012,-0.00128288,0.02734619,1.5377753425500014,-1.1244577409590026,-1.2785974452600009,-0.004944663,0.01023359,-0.04587678
2023-11-27 08:00:47.102999808,-0.0712276,0.06267487,-0.03675127,-0.01492097,0.02317871,-0.01151806,-0.01175535,-0.0007732728,0.02876447,1.526019992550001,-1.1252310137590027,-1.2498329752600008,-0.005120303,0.01024068,-0.0454436
2023-11-27 08:00:47.117000192,-0.07109135,0.06261915,-0.03674174,-0.01238642,0.02036382,-0.007913364,-0.01166057,-0.0008054403,0.02996225,1.5143594225500012,-1.1260364540590029,-1.2198707252600007,-0.005314399,0.01023958,-0.04499768
2023-11-27 08:00:47.131000064,-0.07098368,0.06255263,-0.03669474,-0.01664791,0.01895292,-0.006004703,-0.01143286,-0.0006956955,0.03126043,1.5029265625500012,-1.1267321495590026,-1.1886102952600008,-0.005476903,0.01019976,-0.04454028
2023-11-27 08:00:47.144000000,-0.07092487,0.06249748,-0.03662394,-0.01541505,0.01326306,-0.005662218,-0.01126913,-0.000609566,0.03251183,1.4916574325500012,-1.1273417155590026,-1.1560984652600008,-0.005618043,0.01020036,-0.0440684
2023-11-27 08:00:47.157999872,-0.07083604,0.06244978,-0.03656232,-0.01217991,0.009456119,-0.0077832,-0.01112346,-0.0001807958,0.03376783,1.480533972550001,-1.1275225113590026,-1.1223306352600009,-0.005812924,0.01023859,-0.04363646
2023-11-27 08:00:47.172000000,-0.07086387,0.06248042,-0.03647846,-0.007090865,0.00309015,-0.009429392,-0.01142084,0.0001502247,0.03501914,1.469113132550001,-1.1273722866590026,-1.087311495260001,-0.006034039,0.01027487,-0.04319852
2023-11-27 08:00:47.187000064,-0.07087112,0.06249225,-0.03644095,-0.003991064,0.0002542111,-0.008151453,-0.01160913,0.0005260666,0.03628596,1.457504002550001,-1.1268462200590026,-1.0510255352600009,-0.006205399,0.01027774,-0.04269546
2023-11-27 08:00:47.200000000,-0.07080754,0.06249548,-0.0363787,-0.006233597,-0.0004094745,-0.00772035,-0.01169007,0.001037038,0.03765085,1.445813932550001,-1.1258091820590026,-1.013374685260001,-0.006371725,0.01029101,-0.04214269
2023-11-27 08:00:47.213999872,-0.07079437,0.06256218,-0.03635752,-0.005146611,-0.004000146,-0.004972498,-0.01205694,0.001140296,0.03904897,1.433756992550001,-1.1246688860590026,-0.974325715260001,-0.006551571,0.01030749,-0.04155774
2023-11-27 08:00:47.227000064,-0.07077865,0.06264849,-0.0363807,-0.00442441,-0.006531306,0.0001369461,-0.01241537,0.001364316,0.04031153,1.421341622550001,-1.1233045700590023,-0.934014185260001,-0.006779585,0.0103575,-0.04092758
2023-11-27 08:00:47.240999936,-0.07081978,0.06276846,-0.03630692,-0.001389393,-0.01137907,-0.002033174,-0.01301234,0.001679891,0.04152019,1.4083292825500011,-1.1216246790590023,-0.8924939952600011,-0.007027555,0.01041125,-0.0402866
2023-11-27 08:00:47.255000064,-0.07085253,0.06294633,-0.03630585,0.0005371733,-0.01733405,0.001425175,-0.01354573,0.00262435,0.04290884,1.3947835525500012,-1.1190003290590025,-0.8495851552600011,-0.007223506,0.01046335,-0.03963778
2023-11-27 08:00:47.269999872,-0.07106223,0.06318218,-0.03621555,0.007827424,-0.02076172,-0.00265211,-0.0140246,0.003381778,0.04434891,1.3807589525500013,-1.1156185510590024,-0.8052362452600011,-0.007454906,0.01052881,-0.03899072
2023-11-27 08:00:47.283000064,-0.07121166,0.0632706,-0.03609631,0.01008263,-0.0255056,-0.003533475,-0.01460116,0.004498861,0.04601881,1.3661577925500012,-1.1111196900590024,-0.7592174352600012,-0.007638611,0.01058526,-0.0383202
2023-11-27 08:00:47.296999936,-0.0713824,0.06355926,-0.03604529,0.01759027,-0.02902198,-0.006590098,-0.0151453,0.004888663,0.04770461,1.351012492550001,-1.1062310270590023,-0.7115128252600011,-0.007874053,0.0106398,-0.03768916
2023-11-27 08:00:47.311000064,-0.07173093,0.06382106,-0.03604959,0.02165657,-0.03520118,-0.00798793,-0.01603615,0.005036876,0.04950813,1.3349763425500014,-1.1011941510590024,-0.6620046952600012,-0.008101236,0.01064169,-0.03705296
2023-11-27 08:00:47.324999936,-0.07176569,0.06407765,-0.03588372,0.02102721,-0.03719463,-0.009130687,-0.01668247,0.005287386,0.05151326,1.3182938725500015,-1.0959067650590024,-0.6104914352600012,-0.008344863,0.01074769,-0.03627358
2023-11-27 08:00:47.339000064,-0.07208711,0.0643761,-0.03586568,0.02192727,-0.04182405,-0.006398163,-0.01758342,0.004943874,0.05356865,1.3007104525500015,-1.0909628910590023,-0.5569227852600012,-0.008598581,0.01076061,-0.03545609
2023-11-27 08:00:47.352000000,-0.07209322,0.06458108,-0.03572939,0.01763833,-0.04639055,-0.006910441,-0.01863817,0.004532386,0.05586714,1.2820722825500015,-1.0864305050590024,-0.5010556452600011,-0.008861955,0.01083672,-0.03458887
2023-11-27 08:00:47.367000064,-0.07213347,0.06503357,-0.03549752,0.01081371,-0.04928432,-0.01000901,-0.01941422,0.004151087,0.05808676,1.2626580625500017,-1.0822794180590023,-0.4429688852600011,-0.00920685,0.01085823,-0.0336561
2023-11-27 08:00:47.380000000,-0.07224061,0.0654716,-0.03547022,0.006156484,-0.05279927,-0.008125815,-0.02037853,0.003511327,0.06040823,1.2422795325500016,-1.0787680910590025,-0.3825606552600011,-0.009543762,0.01087129,-0.03270231
2023-11-27 08:00:47.394000128,-0.07221729,0.06581056,-0.03534004,-0.001154773,-0.05252585,-0.006424958,-0.02121439,0.002926751,0.06269539,1.2210651425500016,-1.0758413400590023,-0.3198652652600011,-0.009851668,0.01088687,-0.03176068
2023-11-27 08:00:47.408000000,-0.0720587,0.06618409,-0.03515279,-0.006381777,-0.05375972,-0.004240187,-0.02222788,0.00193819,0.0652197,1.1988372625500017,-1.0739031500590024,-0.2546455652600011,-0.0101849,0.01090987,-0.03074642
2023-11-27 08:00:47.421999872,-0.0720924,0.06658979,-0.0349928,-0.01379297,-0.0555253,-0.005919505,-0.02309586,0.001324453,0.0679639,1.1757414025500017,-1.0725786970590023,-0.1866816652600011,-0.01052293,0.01086467,-0.02976944
2023-11-27 08:00:47.436000000,-0.07194671,0.06698325,-0.03489324,-0.01607394,-0.05506428,-0.006460282,-0.02351288,0.0007953772,0.07116556,1.1522285225500015,-1.0717833198590023,-0.1155161052600011,-0.01085296,0.01085694,-0.02871765
2023-11-27 08:00:47.450000128,-0.07195476,0.06736247,-0.03493873,-0.01348936,-0.0578618,-0.00288929,-0.02399973,0.000133597,0.07433425,1.1282287925500016,-1.0716497228590025,-0.041181855260001,-0.01118214,0.01081962,-0.02763611
2023-11-27 08:00:47.464000000,-0.07190511,0.06787586,-0.03483684,-0.01331539,-0.06253842,0.005502691,-0.02457037,-0.0003963581,0.07750642,1.1036584225500017,-1.0720460809590022,0.0363245647399989,-0.01152778,0.01080512,-0.02645156
2023-11-27 08:00:47.476999936,-0.07170645,0.06858063,-0.03501677,-0.01764443,-0.06870618,0.01923907,-0.02519831,-0.0009148527,0.08052216,1.0784601125500015,-1.0729609336590022,0.1168467247399989,-0.01190883,0.01078735,-0.02522325
2023-11-27 08:00:47.491000064,-0.07157104,0.06898901,-0.03509894,-0.02363375,-0.07000162,0.02720198,-0.0254822,-0.001530018,0.08330435,1.0529779125500018,-1.0744909516590022,0.2001510747399989,-0.01227935,0.01070248,-0.0239452
2023-11-27 08:00:47.505000192,-0.07117449,0.06969275,-0.03493934,-0.03329781,-0.07673678,0.02456604,-0.02643917,-0.002086115,0.08610404,1.026538742550002,-1.0765770666590022,0.2862551147399989,-0.01275032,0.0106484,-0.02259721
2023-11-27 08:00:47.519000064,-0.07105777,0.07038261,-0.0349043,-0.0406289,-0.08057465,0.02060275,-0.02741166,-0.00274053,0.08875886,0.999127082550002,-1.0793175966590025,0.3750139747399989,-0.01318621,0.01052292,-0.02125046
2023-11-27 08:00:47.533999872,-0.07069965,0.07100257,-0.03482214,-0.04517549,-0.08507362,0.01912334,-0.02835661,-0.003378163,0.09137082,0.970770472550002,-1.0826957596590023,0.4663847947399989,-0.01357386,0.0104778,-0.01988412
2023-11-27 08:00:47.546999808,-0.07019389,0.07168999,-0.03479642,-0.05105776,-0.08737502,0.02367735,-0.02884594,-0.00390648,0.09393261,0.941924532550002,-1.0866022396590025,0.5603174047399989,-0.01396851,0.01045001,-0.01847137
2023-11-27 08:00:47.561000192,-0.06997219,0.07241687,-0.03479376,-0.05791435,-0.09042059,0.02523275,-0.0293635,-0.004147842,0.09674818,0.912561032550002,-1.0907500816590023,0.6570655847399989,-0.01437978,0.01029999,-0.01708631
2023-11-27 08:00:47.575000064,-0.06970559,0.07326086,-0.03476312,-0.0525198,-0.09706558,0.02881633,-0.0300587,-0.004803897,0.09933379,0.882502332550002,-1.0955539786590025,0.7563993747399989,-0.01481006,0.0102008,-0.01563084
2023-11-27 08:00:47.588000000,-0.06964243,0.07395762,-0.03464697,-0.0457469,-0.09809821,0.02149442,-0.03041448,-0.004711535,0.1021535,0.852087852550002,-1.1002655136590025,0.8585528747399989,-0.01522799,0.01010778,-0.01412067
2023-11-27 08:00:47.602999808,-0.06950006,0.07479036,-0.03451328,-0.03578528,-0.1031154,0.01619943,-0.03111542,-0.004373509,0.105183,0.820972432550002,-1.1046390226590024,0.9637358747399988,-0.0156961,0.01008755,-0.01252704
2023-11-27 08:00:47.616000000,-0.06957768,0.07547691,-0.03439573,-0.02869438,-0.1044318,0.0142616,-0.03186283,-0.004018073,0.1081409,0.789109602550002,-1.1086570956590025,1.0718767747399989,-0.01615693,0.009997352,-0.01089711
2023-11-27 08:00:47.630000128,-0.06939942,0.07623625,-0.03424187,-0.02326467,-0.1066254,0.01477804,-0.03282981,-0.004293677,0.1112448,0.756279792550002,-1.1129507726590022,1.1831215747399988,-0.01668057,0.009953864,-0.009190595
2023-11-27 08:00:47.644000000,-0.06930389,0.07683916,-0.03416928,-0.02246543,-0.1057857,0.01686703,-0.03360442,-0.004637408,0.1143635,0.722675372550002,-1.1175881806590022,1.2974850747399989,-0.01718041,0.009877151,-0.007448135
2023-11-27 08:00:47.657999872,-0.06918418,0.07764293,-0.03424817,-0.02130214,-0.1028464,0.01905179,-0.03422496,-0.005220604,0.1177584,0.688450412550002,-1.1228087846590022,1.415243474739999,-0.01768044,0.009796122,-0.005684801
2023-11-27 08:00:47.672000000,-0.06898765,0.07830618,-0.03424838,-0.0251854,-0.09991196,0.01929324,-0.03489219,-0.005614279,0.1209209,0.6535582225500021,-1.1284230636590022,1.536164374739999,-0.01815948,0.009715595,-0.003892911
2023-11-27 08:00:47.687000064,-0.06883045,0.07895957,-0.03411049,-0.03017926,-0.09450641,0.01792287,-0.03535291,-0.005879279,0.1243885,0.6182053125500021,-1.1343023426590022,1.660552874739999,-0.01865332,0.009618258,-0.002045629
2023-11-27 08:00:47.700000000,-0.06869451,0.07948719,-0.03397323,-0.03180545,-0.09298448,0.01520865,-0.03595796,-0.005730412,0.127872,0.5822473525500022,-1.140032754659002,1.788424874739999,-0.01911885,0.009517743,-0.0001610806
2023-11-27 08:00:47.712999936,-0.06865747,0.08023341,-0.0340656,-0.02330112,-0.08939255,0.0187302,-0.03632278,-0.00562204,0.131833,0.5459245725500022,-1.145654794659002,1.920257874739999,-0.01964298,0.009447368,0.001794618
2023-11-27 08:00:47.728000000,-0.06865731,0.0807949,-0.03411862,-0.01419094,-0.08936044,0.02615179,-0.03694484,-0.005057141,0.1359673,0.5089797325500022,-1.150711935659002,2.056225174739999,-0.02015116,0.00940603,0.003830505
2023-11-27 08:00:47.740999936,-0.0688135,0.08144516,-0.03406611,-0.007237005,-0.0895244,0.02303927,-0.0373446,-0.004442024,0.1401222,0.4716351325500021,-1.155153959659002,2.196347374739999,-0.02066718,0.009340651,0.005905952
2023-11-27 08:00:47.755000064,-0.06885208,0.08217323,-0.03412914,-0.001463733,-0.09169871,0.02110607,-0.038098,-0.003891299,0.144474,0.4335371325500021,-1.159045258659002,2.340821374739999,-0.02127115,0.009318102,0.008102437
2023-11-27 08:00:47.769999872,-0.06892286,0.08283564,-0.03407365,0.001894472,-0.08903358,0.01926249,-0.03877684,-0.003296937,0.1488368,0.3947602925500021,-1.162342195659002,2.489658174739999,-0.02188754,0.009290031,0.01035362
2023-11-27 08:00:47.784000000,-0.06904651,0.08350514,-0.03419429,0.0001448937,-0.09081857,0.01852326,-0.03976828,-0.002893292,0.1532057,0.3549920125500022,-1.165235487659002,2.642863874739999,-0.02247019,0.009214054,0.0126554
2023-11-27 08:00:47.796999936,-0.06900725,0.08412497,-0.0340565,-0.001841426,-0.09251394,0.01670454,-0.04049372,-0.003370968,0.1576026,0.3144982925500021,-1.168606455659002,2.800466474739999,-0.0230393,0.009158639,0.01498573
2023-11-27 08:00:47.811000064,-0.06893899,0.08484037,-0.03395056,-0.007613307,-0.09574143,0.01815274,-0.04135548,-0.003631252,0.1621795,0.2731428125500021,-1.172237707659002,2.962645974739999,-0.02362661,0.009118982,0.01740132
2023-11-27 08:00:47.824999936,-0.06903876,0.08560878,-0.03398737,-0.001698497,-0.1021608,0.01230125,-0.04215847,-0.004084368,0.1671469,0.2309843425500021,-1.176322075659002,3.1297928747399992,-0.02419899,0.009078488,0.01987424
2023-11-27 08:00:47.839000064,-0.06908783,0.08646202,-0.03370216,-0.0003063126,-0.1076205,0.005688315,-0.04265984,-0.003826499,0.1722326,0.1883245025500021,-1.180148574659002,3.30202547474,-0.02482441,0.009040341,0.02243048
2023-11-27 08:00:47.852999936,-0.06935585,0.08724853,-0.03363618,0.003594551,-0.1137827,0.003896901,-0.04301193,-0.004274045,0.1771456,0.1453125725500021,-1.1844226196590022,3.479171074739999,-0.02539856,0.008895094,0.02501803
2023-11-27 08:00:47.865999872,-0.06935728,0.08814624,-0.03332385,-0.002626117,-0.1211606,0.002896198,-0.04365671,-0.005516749,0.181867,0.1016558625500021,-1.1899393686590023,3.661038074739999,-0.02601247,0.008756748,0.02770346
2023-11-27 08:00:47.880000000,-0.06922901,0.08897635,-0.03321312,-0.016232,-0.1237757,0.001400972,-0.0442181,-0.007215162,0.1866754,0.0574377625500021,-1.1971545306590023,3.847713474739999,-0.02661856,0.008578804,0.03046695
2023-11-27 08:00:47.894000128,-0.0688073,0.09000762,-0.03288719,-0.02879261,-0.1265848,-0.0005071348,-0.04507726,-0.009260396,0.1909519,0.0123605025500021,-1.2064149266590023,4.038665374739999,-0.02734653,0.008406851,0.03334618
2023-11-27 08:00:47.907000064,-0.0686195,0.09078532,-0.03254438,-0.04521326,-0.1263385,-0.005120931,-0.04582198,-0.01121864,0.1951993,-0.0334614774499978,-1.2176335666590024,4.233864674739999,-0.02803606,0.008106819,0.03627495
2023-11-27 08:00:47.921999872,-0.06859842,0.09148727,-0.03213039,-0.04616991,-0.1227254,-0.009959426,-0.04623838,-0.01373059,0.1992711,-0.0796998574499978,-1.2313641566590023,4.433135774739998,-0.02867255,0.007787965,0.03918537
2023-11-27 08:00:47.936999936,-0.06838305,0.09220655,-0.03168471,-0.0446435,-0.11853,-0.01455886,-0.04678984,-0.01696434,0.2030629,-0.1264896974499978,-1.2483284966590025,4.636198674739998,-0.02933703,0.007446193,0.04212709
2023-11-27 08:00:47.950000128,-0.06818801,0.09288408,-0.03140107,-0.04412959,-0.1119161,-0.01969861,-0.04747226,-0.02104245,0.2058965,-0.1739619574499978,-1.2693709466590022,4.842095174739998,-0.03000091,0.007012284,0.04508822
2023-11-27 08:00:47.964000000,-0.06777893,0.09332147,-0.0311189,-0.05500336,-0.0977954,-0.01899439,-0.04787434,-0.02519302,0.2078999,-0.2218362974499979,-1.294563966659002,5.049995074739998,-0.03062758,0.006495048,0.04806677
2023-11-27 08:00:47.976999936,-0.06757113,0.09378985,-0.03083166,-0.05360718,-0.08395229,-0.01907842,-0.04787569,-0.02956489,0.2097311,-0.2697119874499979,-1.3241288566590022,5.259726174739998,-0.03128776,0.00593724,0.05108245
2023-11-27 08:00:47.991000064,-0.06731098,0.09410384,-0.0302336,-0.05524273,-0.07251237,-0.02632374,-0.04744108,-0.03266204,0.2115801,-0.3171530674499979,-1.356790896659002,5.471306274739998,-0.03191836,0.005418827,0.05409154
2023-11-27 08:00:48.005000192,-0.06707825,0.09425858,-0.03007148,-0.05254247,-0.05436923,-0.03097607,-0.0460776,-0.03368736,0.213763,-0.3632306674499979,-1.3904782566590022,5.685069274739998,-0.03249817,0.00498336,0.05713804
2023-11-27 08:00:48.019000064,-0.06685326,0.09412362,-0.02963718,-0.05066065,-0.0394609,-0.03341915,-0.04442682,-0.03275385,0.2163903,-0.4076574874499979,-1.423232106659002,5.901459574739998,-0.03304844,0.004532753,0.06021067
2023-11-27 08:00:48.032999936,-0.06666444,0.09418903,-0.02916255,-0.05128118,-0.02071721,-0.03789667,-0.04186539,-0.03069177,0.2192045,-0.4495228774499979,-1.453923876659002,6.120664074739998,-0.03364411,0.004085326,0.06334601
2023-11-27 08:00:48.046999808,-0.06639684,0.0939094,-0.0286747,-0.05149993,-0.003879829,-0.04961046,-0.03884416,-0.0279355,0.2226571,-0.4883670374499979,-1.481859376659002,6.343321174739998,-0.03410918,0.003739194,0.06651743
2023-11-27 08:00:48.061000192,-0.06644017,0.09355022,-0.02811665,-0.04455233,0.01478194,-0.06136875,-0.03495202,-0.02479829,0.2265576,-0.523319057449998,-1.506657666659002,6.569878774739998,-0.03452227,0.003410275,0.06975213
2023-11-27 08:00:48.073999872,-0.06662904,0.09294559,-0.0274725,-0.02280837,0.02773401,-0.08017332,-0.03037197,-0.02152642,0.2312054,-0.553691027449998,-1.528184086659002,6.801084174739998,-0.03476289,0.003184655,0.07306015
