time,acceleration_x,acceleration_y,acceleration_z
1698750504624,-0.03208081,-0.03676127,-0.004488076
1698750504633,-0.06093039,-0.045554766,0.024544454
1698750504643,-0.08874209,-0.0548676149999999,0.055128694
1698750504661,-0.11399854,-0.066869125,0.086425514
1698750504679,-0.13788915,-0.080081175,0.116758004
1698750504697,-0.1614881199999999,-0.090925325,0.148384784
1698750504714,-0.1847004,-0.097885059,0.182536394
1698750504731,-0.20768477,-0.1028082219999999,0.218962444
1698750504748,-0.23014494,-0.108100169,0.256719324
1698750504765,-0.25166368,-0.113934836,0.294821794
1698750504782,-0.27308921,-0.118441042,0.333360394
1698750504799,-0.29508237,-0.1198394649999999,0.371690534
1698750504814,-0.31761046,-0.1191131212999999,0.408401094
1698750504831,-0.34037808,-0.1167751782999999,0.441413524
1698750504845,-0.36295946,-0.1126782872999999,0.469401644
1698750504860,-0.38549029,-0.1050365252999999,0.492436094
1698750504875,-0.40809116,-0.0915891453,0.511201384
1698750504889,-0.43012917,-0.0731686652999999,0.525917504
1698750504904,-0.4505638,-0.0510532452999999,0.5358768930000001
1698750504919,-0.46918912,-0.0264972352999999,0.541546657
1698750504933,-0.4858989,0.0004213947,0.544170402
1698750504947,-0.50042758,0.0291646547,0.545412172
1698750504961,-0.51282197,0.0577447947,0.544193742
1698750504975,-0.52405085,0.0827715547,0.538934753
1698750504990,-0.5341757199999999,0.1009802847,0.527735293
1698750505004,-0.5435595059999999,0.1122779247,0.510190793
1698750505017,-0.552861643,0.1185006557,0.487353763
1698750505032,-0.562997773,0.1215093837,0.460075183
1698750505046,-0.574696643,0.1229344587,0.428528003
1698750505060,-0.587624293,0.1225993586,0.392051923
1698750505074,-0.601288073,0.1201331726,0.349533383
1698750505088,-0.6151341029999999,0.1139805416,0.299727503
1698750505101,-0.6287711029999999,0.1043066916,0.242261833
1698750505115,-0.6417130529999999,0.0941912016,0.177353013
1698750505129,-0.6540168729999999,0.0868057855999999,0.107166133
1698750505144,-0.6664936229999999,0.0853777185999999,0.033244613
1698750505158,-0.679803403,0.0904007625999999,-0.0435602369999999
1698750505172,-0.6941959529999999,0.0996339095999999,-0.1246323669999999
1698750505182,-0.7087316029999999,0.1094675525999999,-0.2104726069999999
1698750505196,-0.722273603,0.1190963016,-0.3038991469999999
1698750505210,-0.734004873,0.1292921615999999,-0.4033420569999999
1698750505225,-0.744525453,0.1432397616,-0.5060990569999999
1698750505238,-0.753589997,0.1625290415999999,-0.6097568569999999
1698750505252,-0.7612967989999999,0.1872100916,-0.7127186569999999
1698750505266,-0.7673095179999999,0.2151033115999999,-0.8144979569999999
1698750505280,-0.771244509,0.2427888016,-0.916643657
1698750505293,-0.772532286,0.2671490916,-1.020045857
1698750505307,-0.770627702,0.2871196616,-1.125141457
1698750505321,-0.766171364,0.3036146716,-1.231470957
1698750505335,-0.759578505,0.3186090216,-1.337323857
1698750505349,-0.751528924,0.3336921716,-1.440974957
1698750505363,-0.742245802,0.3491759616,-1.5410103569999998
1698750505377,-0.731703872,0.3642384916,-1.6373881969999995
1698750505391,-0.720039162,0.3771268216,-1.7301453469999997
1698750505405,-0.7068953419999999,0.3874725016,-1.819870697
1698750505419,-0.6930647419999999,0.3960311306,-1.906123957
1698750505432,-0.6788232419999999,0.4047815136,-1.987958457
1698750505446,-0.6642865619999999,0.4161092936,-2.064533737
1698750505461,-0.6497365219999999,0.4303349736,-2.135961227
1698750505474,-0.6350327119999999,0.4469652036000001,-2.2021490269999995
1698750505488,-0.6200157419999999,0.4647823836,-2.263071097
1698750505502,-0.6045023419999999,0.4827663536000001,-2.318817597
1698750505516,-0.5879371519999999,0.5000121736,-2.369590557
1698750505530,-0.5706121319999998,0.5166811236000001,-2.415449997
1698750505543,-0.5530147319999998,0.5331915336,-2.456409347
1698750505557,-0.5350010919999998,0.5494760536000001,-2.492555357
1698750505571,-0.5169607719999998,0.5659597336000001,-2.523879077
1698750505585,-0.4989542419999997,0.5825954336000001,-2.550477747
1698750505599,-0.4815288319999998,0.5998445236000001,-2.572573217
1698750505613,-0.4643030919999998,0.6169409536000001,-2.590369667
1698750505626,-0.4477296519999998,0.6338698536000001,-2.603849867
1698750505640,-0.4317956419999998,0.6500999336000002,-2.6132615070000003
1698750505654,-0.4169717719999998,0.6657845036000002,-2.618686416
1698750505668,-0.4027628819999998,0.6812403336000001,-2.619718712
1698750505682,-0.3897588919999998,0.6956578536000001,-2.617334167
1698750505696,-0.3780748319999998,0.7069753936000001,-2.614481919
1698750505709,-0.3683024899999998,0.7137612046,-2.6135515627
1698750505723,-0.3605232619999998,0.7151439106,-2.6167000937
1698750505737,-0.3547093529999998,0.7135803316,-2.6237969657
1698750505751,-0.3506997699999998,0.7130259251,-2.6330963047
1698750505765,-0.3477856769999998,0.7164533751,-2.6426196197
1698750505779,-0.3451064739999998,0.7257043140999999,-2.6508305117
1698750505793,-0.3424144849999997,0.7407804640999999,-2.6574229447
1698750505807,-0.3398746299999998,0.7595195440999999,-2.6630641587
1698750505820,-0.3379746389999998,0.7789676140999999,-2.6689669837000003
1698750505834,-0.3366318929999998,0.7976893440999999,-2.6756640587
1698750505849,-0.3354717879999997,0.8159521540999999,-2.6833289137
1698750505863,-0.3345433166999997,0.8325341840999999,-2.6919683987
1698750505876,-0.3344685617699998,0.8472633140999999,-2.7017375427
1698750505890,-0.3349820185699997,0.8606443940999999,-2.7120280227
1698750505904,-0.3360647315699998,0.8734351540999999,-2.7225033526999995
1698750505918,-0.3377521995699998,0.8864176740999999,-2.7327966627
1698750505932,-0.3399838125699998,0.8999548541,-2.7430264126999995
1698750505946,-0.3429312005699998,0.9135382541,-2.7531819727
1698750505959,-0.3464581595699998,0.9268136541,-2.7631980227
1698750505973,-0.3501874055699998,0.9397524341,-2.772908352699999
1698750505987,-0.3540024285699998,0.9526003641,-2.7817726276999992
1698750506001,-0.3577703675699998,0.9654067741,-2.7892733276999992
1698750506015,-0.3614478605699998,0.9784679441,-2.7948345087
1698750506029,-0.3647505425699998,0.9915860541,-2.7985187477
1698750506043,-0.3675972915699997,1.0037937841,-2.800518142699999
1698750506057,-0.3702601245699997,1.0151050941,-2.800954697899999
1698750506071,-0.3725206355699997,1.0245587771,-2.799959669999999
1698750506085,-0.3744492275699997,1.0322408321,-2.797796911999999
1698750506099,-0.3759445215699997,1.0382317991,-2.794528296999999
1698750506112,-0.3771920785699997,1.0432816021,-2.790077329999999
1698750506126,-0.3783117635699997,1.0480280001,-2.784485177999999
1698750506140,-0.3792965144699997,1.0527444251,-2.778006503999999
1698750506154,-0.3801719437699997,1.0572929871,-2.770971994999999
1698750506168,-0.3806430451699997,1.0616525441,-2.763741965999999
1698750506182,-0.3810974372699997,1.0654790691,-2.756714020999999
1698750506196,-0.3817445865699997,1.0690690631,-2.74990096
1698750506210,-0.3828947725699997,1.0721859540999998,-2.7433476689999994
1698750506223,-0.3842637065699997,1.0749895820999995,-2.736998397
1698750506238,-0.3860008145699997,1.0779855740999995,-2.7308377149999994
1698750506251,-0.3877300225699996,1.0817401780999998,-2.724776825
1698750506265,-0.3895697075699996,1.0866395490999998,-2.7188687119999995
1698750506279,-0.3915943825699996,1.0924334981,-2.7134711409999994
1698750506293,-0.3941152305699996,1.0984009441,-2.708897383
1698750506307,-0.3971006395699996,1.1037712711,-2.7055055559999994
1698750506321,-0.4005552335699996,1.1081332101,-2.703339655
1698750506335,-0.4047178025699996,1.1114327001000002,-2.7024101540999994
1698750506349,-0.4093988055699996,1.1137599041,-2.702928269499999
1698750506363,-0.4145113415699996,1.1157611661000002,-2.704668834499999
1698750506377,-0.4200340355699996,1.1180357461,-2.7078429264999992
1698750506390,-0.4259342695699996,1.1212105211,-2.712435625499999
1698750506405,-0.4321402595699996,1.1246766201,-2.7187047775
1698750506418,-0.4384819975699996,1.1280725771,-2.726812957499999
1698750506432,-0.4448123215699996,1.1310242861,-2.736773117499999
1698750506446,-0.4512868345699996,1.1335430661,-2.748551097499999
1698750506460,-0.4576230005699996,1.1356920271,-2.7621909475
1698750506474,-0.4639281495699996,1.1374912241,-2.7772826774999992
1698750506488,-0.4699701745699996,1.1394875121,-2.793278987499999
1698750506502,-0.4754159345699996,1.1424074460999998,-2.809817557499999
1698750506516,-0.4799996405699996,1.1460276760999997,-2.8268460574999987
1698750506530,-0.4837785715699996,1.1497329770999998,-2.844515797499999
1698750506544,-0.4862163035699997,1.1532458561,-2.862868537499999
1698750506558,-0.4873068945699996,1.1566947420999998,-2.881902047499999
1698750506571,-0.4874147612699996,1.1598487341,-2.9017388174999987
1698750506585,-0.4865868434699996,1.1623925271,-2.9222080974999987
1698750506599,-0.4847270834699996,1.1649037861,-2.9428926974999987
1698750506613,-0.4822764324699996,1.1673664011,-2.963608777499999
1698750506628,-0.4795041104699996,1.1698108681,-2.984271897499999
1698750506641,-0.4764173544699996,1.1722797590999998,-3.0047590174999987
1698750506655,-0.4732314704699996,1.1746169250999998,-3.025331527499999
1698750506670,-0.4701285594699996,1.1766658340999998,-3.0463038374999987
1698750506683,-0.4672155014699996,1.1786795690999998,-3.0675041374999985
1698750506697,-0.4645958834699996,1.1804755420999995,-3.0886579674999983
1698750506711,-0.4620442514699995,1.1818339590999998,-3.109873837499998
1698750506725,-0.4597601634699995,1.1828234352999998,-3.131134707499998
1698750506739,-0.4576659744699995,1.1837119262999998,-3.152088637499998
1698750506753,-0.4556198374699995,1.1849713862999998,-3.172562757499998
1698750506767,-0.4537992964699995,1.1870182472999995,-3.192371387499998
1698750506781,-0.4519956624699995,1.1897121322999995,-3.2116899574999977
1698750506795,-0.4502802814699995,1.1928525962999996,-3.230674087499998
1698750506809,-0.4486099044699995,1.1964934292999996,-3.2494642074999978
1698750506823,-0.4470559944699995,1.1998806272999996,-3.268204597499998
1698750506837,-0.4455152634699995,1.2028034642999996,-3.286648147499998
1698750506851,-0.4438397234699995,1.2055534902999996,-3.304656197499998
1698750506866,-0.4421980284699995,1.2078928822999997,-3.322128307499998
1698750506879,-0.4406020414699995,1.2099545052999996,-3.338787177499998
1698750506893,-0.4388601014699995,1.2119174472999996,-3.354317067499998
1698750506907,-0.4369187494699995,1.2133880192999995,-3.368739807499998
1698750506921,-0.4350795694699995,1.2144819972999996,-3.3821782574999983
1698750506935,-0.4331745414699995,1.2148398296999996,-3.3947770674999984
1698750506949,-0.4311596314699995,1.2149915287999995,-3.4067675474999985
1698750506962,-0.4291715344699995,1.2150143600599994,-3.4182913474999985
1698750506977,-0.4273603304699995,1.2151111596299995,-3.4294086474999985
1698750506990,-0.4255893484699995,1.2152331202299995,-3.4404413074999987
1698750507004,-0.4239919514699995,1.2154099087299994,-3.4513957674999984
1698750507019,-0.4226579284699995,1.2158778994299997,-3.4622245774999985
1698750507032,-0.4214840564699995,1.2163767722299994,-3.4729019974999984
1698750507046,-0.4204919259699994,1.2166579273299991,-3.4834639374999985
1698750507060,-0.4197374894699994,1.2167359318799993,-3.4939255174999984
1698750507074,-0.4193651774699994,1.2166713654999992,-3.504182717499998
1698750507088,-0.4196440214699994,1.2162683568999992,-3.5144721874999982
1698750507102,-0.4204325261699995,1.2152137448999991,-3.524916727499998
1698750507115,-0.4219054941699995,1.2130915038999994,-3.535586827499998
1698750507130,-0.4237560761699995,1.2111431798999994,-3.5460376074999984
1698750507144,-0.4261479741699995,1.2093529488999994,-3.5556812174999983
1698750507157,-0.4294139101699995,1.2090204798999995,-3.5644434054999983
1698750507172,-0.4332052001699995,1.2105700008999996,-3.5723526294999983
1698750507186,-0.4374967811699995,1.2137611088999996,-3.579699152499998
1698750507200,-0.4424043861699995,1.2175200408999995,-3.586702729499998
1698750507213,-0.4480272341699995,1.2208932948999995,-3.593789953499998
1698750507227,-0.4538341081699995,1.2234450588999994,-3.6006916784999983
1698750507241,-0.4595867121699995,1.2252273358999994,-3.607543872499998
1698750507257,-0.4655385971699995,1.2266028648999994,-3.614113544499998
1698750507269,-0.4713709151699995,1.2280557868999993,-3.620208053499998
1698750507282,-0.4771292091699995,1.229281567899999,-3.6259932394999983
1698750507296,-0.4826500311699995,1.2302384839999994,-3.631581877499998
1698750507311,-0.4878597091699995,1.2308735091999994,-3.6370271744999982
1698750507324,-0.4925168901699995,1.2311699091999997,-3.6423798594999983
1698750507339,-0.4968020521699995,1.2308114851999994,-3.6476079555
1698750507352,-0.5008515331699995,1.2301682508999994,-3.652889858499999
1698750507367,-0.5044529101699995,1.2286716378999991,-3.658360570499999
1698750507380,-0.5080272471699995,1.2265755058999994,-3.663963217499999
1698750507394,-0.5111717011699994,1.2237126118999997,-3.669410011499999
1698750507409,-0.5138606671699995,1.2203149688999997,-3.674486251499999
1698750507422,-0.5160016211699995,1.2171466438999994,-3.679012271499999
1698750507435,-0.5176416711699995,1.2137823268999994,-3.6832247634999993
1698750507450,-0.5190020901699994,1.2098383298999995,-3.6875141725
1698750507464,-0.5201382071699995,1.2051307098999997,-3.6919608275
1698750507478,-0.5207801726699994,1.1998111418999995,-3.6961590275
1698750507491,-0.5214223625699994,1.1943766658999997,-3.7001855325
1698750507505,-0.5220630882699994,1.1886771868999997,-3.7039028675
1698750507519,-0.5223759749699993,1.1833672238999997,-3.7073446515
1698750507533,-0.5222850935999993,1.1796365988999995,-3.7100800795
1698750507547,-0.5220532966999993,1.1777179258999997,-3.7122914805
1698750507561,-0.5220600209649994,1.1767877927999997,-3.7143522465
1698750507575,-0.5220994893649994,1.1760099221999996,-3.7165675675
1698750507589,-0.5217808837649994,1.1761487816999996,-3.7185230985
1698750507603,-0.5213676527649994,1.1768656149999996,-3.7204040575
1698750507617,-0.5206957458649994,1.1781646739999996,-3.7223830665
1698750507631,-0.5201184894649995,1.1794217709999997,-3.7245806235
1698750507646,-0.5194776804649995,1.1800684702999995,-3.7270334365
1698750507658,-0.5193856182949995,1.1793170169999998,-3.7301930185
1698750507673,-0.5194787992149995,1.1774108919999997,-3.7333722335
1698750507686,-0.5198208959149995,1.1752141449999998,-3.7358617415
1698750507701,-0.5200009824149995,1.1733707059999998,-3.7368220116
1698750507714,-0.5204530085149994,1.1720934929999998,-3.7363877984
1698750507728,-0.5211156116149994,1.1707768479999998,-3.7350272874
1698750507742,-0.5220944434149994,1.1690039739999998,-3.7331977984
1698750507756,-0.5231289524149995,1.1660607589999998,-3.7311035564
1698750507770,-0.5246849624149995,1.1625120749999998,-3.7289420214
1698750507784,-0.5264754404149995,1.1584952959999997,-3.7262441464
1698750507799,-0.5286321514149995,1.1546756349999996,-3.7229101924
1698750507811,-0.5309697414149995,1.1512416209999996,-3.7189755284
1698750507825,-0.5329898954149995,1.1482185189999996,-3.7145686394
1698750507839,-0.5353099194149995,1.1451239289999997,-3.7097549434
1698750507853,-0.5375963204149995,1.1419716049999995,-3.7043906624
1698750507867,-0.5397758644149995,1.1392897739999996,-3.6980536894
1698750507881,-0.5421335764149995,1.1371884699999997,-3.6907504554
1698750507895,-0.5446819834149995,1.1355994289999998,-3.6826802894
1698750507909,-0.5471391544149995,1.1338840899999998,-3.6742432804
1698750507923,-0.5495352204149995,1.1322595369999997,-3.6651572354
1698750507937,-0.5520914584149995,1.1310053219999998,-3.6552319524
1698750507951,-0.5546353634149995,1.129834645,-3.6445491124
1698750507965,-0.5573626394149995,1.1281476869999998,-3.6333733624
1698750507978,-0.5601875394149995,1.1258882779999997,-3.6216915224
1698750507992,-0.5630361384149996,1.1231691739999996,-3.6092845424
1698750508006,-0.5655265344149996,1.1201995399999995,-3.5960281324
1698750508020,-0.5677892664149996,1.1166308099999995,-3.5819435124
1698750508036,-0.5698577224149997,1.1127443139999995,-3.5670190224
1698750508048,-0.5717544504149996,1.1088154789999995,-3.5512702424
1698750508062,-0.5736704954149996,1.1051110229999996,-3.5347596824
1698750508076,-0.5757103354149996,1.1015298789999997,-3.5176216024
1698750508090,-0.5780310104149996,1.0973049509999997,-3.5003089424
1698750508104,-0.5805104644149996,1.0927780309999997,-3.4828428424
1698750508117,-0.5835536804149997,1.0880495809999997,-3.4651655724
1698750508131,-0.5866727964149997,1.0839056079999998,-3.4471915823999995
1698750508145,-0.5899151894149997,1.080230696,-3.4288416023999995
1698750508158,-0.5930982334149997,1.0776411099999998,-3.4100257323999994
1698750508173,-0.5962957364149997,1.0755657609999998,-3.3910484623999992
1698750508187,-0.5994793634149996,1.0746935639999995,-3.3715819923999995
1698750508201,-0.6025889084149997,1.0755626287999998,-3.3510459524
1698750508214,-0.6058540844149997,1.0774527107999998,-3.3299843523999995
1698750508228,-0.6097397644149997,1.0795572388,-3.3085857224
1698750508242,-0.6139717524149997,1.0815330418,-3.2872353424
1698750508256,-0.6183796694149997,1.0831037778,-3.2661720523999995
1698750508270,-0.6231826824149996,1.0840821856999998,-3.2457457224
1698750508284,-0.6281466424149996,1.0839403384999995,-3.2262383124
1698750508298,-0.6336015444149996,1.0829501810999995,-3.2079589824
1698750508312,-0.6391087394149996,1.0819526866999998,-3.1905105823999995
1698750508325,-0.6448505304149996,1.0812056362999998,-3.1741559823999994
1698750508340,-0.6507233674149996,1.0803914643999997,-3.1587868124
1698750508353,-0.6568892024149996,1.0799240787999995,-3.1443738323999995
1698750508368,-0.6633343394149996,1.0795961160999998,-3.1310122923999995
1698750508381,-0.6700744994149996,1.0795598330499998,-3.1186093623999995
1698750508395,-0.6768087884149996,1.0791569334499995,-3.1075264923999995
1698750508409,-0.6839172794149996,1.0781692637499998,-3.0977944563999995
1698750508424,-0.6909809034149996,1.0771859149499998,-3.0890389854
1698750508437,-0.6980148514149996,1.0763358340499998,-3.0812105714
1698750508450,-0.7052579664149996,1.07586302525,-3.0740532694
1698750508464,-0.7126243564149995,1.07605303445,-3.0676319803999994
1698750508478,-0.7199603564149996,1.07733640145,-3.061941537399999
1698750508492,-0.7271766834149995,1.07973004445,-3.056779128399999
1698750508506,-0.7343293414149995,1.08313730345,-3.052010610399999
1698750508521,-0.7416220674149995,1.08752880745,-3.047460809399999
1698750508534,-0.7493397824149994,1.09220348645,-3.043374139399999
1698750508547,-0.7572591474149994,1.09722067345,-3.039234085399999
1698750508561,-0.7656445294149995,1.10247850145,-3.034670682399999
1698750508576,-0.7743367274149995,1.10727320745,-3.0294335533999988
1698750508589,-0.7834406194149994,1.11072129645,-3.023623676399999
1698750508604,-0.7928217034149995,1.11254872145,-3.017274888399999
1698750508617,-0.8026236434149995,1.11268431135,-3.010652642399999
1698750508631,-0.8124263034149994,1.11144916935,-3.0038989243999987
1698750508645,-0.8224504634149994,1.10935916435,-2.9972010803999987
1698750508660,-0.8325008934149994,1.10679503235,-2.9905467333999987
1698750508673,-0.8424792904149995,1.10400413635,-2.9839375673999986
1698750508688,-0.8525298804149994,1.10147109535,-2.9773242703999987
1698750508701,-0.8625557504149994,1.09907622035,-2.9706865653999985
1698750508714,-0.8723463554149994,1.09666425635,-2.9640199893999983
1698750508728,-0.8821718664149993,1.09443916835,-2.9575188093999984
1698750508742,-0.8920726964149993,1.0922130043499998,-2.9512860543999984
1698750508756,-0.9019304004149992,1.0897881913499998,-2.9454971673999983
1698750508770,-0.9113633624149992,1.0871229643499998,-2.940185374399998
1698750508784,-0.9205665504149992,1.0841918553499998,-2.935421774399998
1698750508798,-0.9294218334149992,1.0814192103499998,-2.931179537399998
1698750508813,-0.9378474464149992,1.0791579433499998,-2.927269819399998
1698750508826,-0.9458208904149992,1.07693927635,-2.923679413399998
1698750508840,-0.9532158444149992,1.0744477633499998,-2.920561088399998
1698750508854,-0.9601478104149992,1.0716085833499998,-2.917980595399998
1698750508868,-0.9665200264149992,1.0682267293499998,-2.915838809399998
1698750508882,-0.9723374694149992,1.0647920483499995,-2.913932649399998
1698750508896,-0.9776877384149992,1.0615526073499997,-2.911729635399998
1698750508909,-0.9825565694149994,1.0590144203499996,-2.909195331399998
1698750508923,-0.9874062234149994,1.0569048613499996,-2.906444203399998
1698750508937,-0.9913840064149994,1.0554989223499995,-2.9034812823999983
1698750508951,-0.9947663064149992,1.0546492878499996,-2.9007099043999984
1698750508965,-0.9972482484149991,1.0545864854699996,-2.8983929633999983
1698750508979,-0.9990447644149992,1.0549667011699997,-2.8968101583999983
1698750508992,-1.0000063883149992,1.0559952241699997,-2.8958888862999985
1698750509006,-1.0004369582149992,1.0575656291699995,-2.8955967909999987
1698750509020,-1.0001786548149991,1.0595673561699994,-2.8958853984999986
1698750509035,-0.9992160390149992,1.0620252631699991,-2.896210966399998
1698750509048,-0.9974453020149991,1.064820817169999,-2.8965712385999987
1698750509062,-0.9948222780149992,1.067678653169999,-2.8968254161999987
1698750509076,-0.9915073740149992,1.0702120271699993,-2.8972197305999985
1698750509090,-0.9872345480149992,1.0723577061699994,-2.8976744556999985
1698750509104,-0.9821009850149992,1.0739671661699994,-2.8980451683999986
1698750509118,-0.9758532550149992,1.0754672161699994,-2.8982314051999984
1698750509133,-0.9684676010149992,1.0768427411699997,-2.8978809545999984
1698750509146,-0.9605958590149992,1.0777016066699994,-2.8975084448999984
1698750509159,-0.9520711450149992,1.078794251669999,-2.8970550737999985
1698750509174,-0.9428832940149992,1.0806291656699991,-2.8967814753999983
1698750509187,-0.9334587040149992,1.0839148076699994,-2.8969442803999983
1698750509202,-0.9236421600149992,1.0885504376699993,-2.8977882136999984
1698750509215,-0.9136545060149992,1.0949145916699992,-2.899513549699998
1698750509229,-0.9034782460149992,1.102913857669999,-2.9023553436999983
1698750509243,-0.8929554960149991,1.113158397669999,-2.9061442566999984
1698750509257,-0.8825250660149991,1.126194507669999,-2.9112582796999984
1698750509271,-0.8719379760149991,1.142062537669999,-2.9174163656999985
1698750509285,-0.8613663560149991,1.1611688976699992,-2.9247415806999983
1698750509299,-0.8506848860149991,1.1833856376699992,-2.9330635236999982
1698750509313,-0.8400047560149991,1.208537187669999,-2.9422747936999984
1698750509327,-0.8292775160149991,1.236167927669999,-2.9523985736999983
1698750509340,-0.8183062560149991,1.266277907669999,-2.9635204036999983
1698750509355,-0.8068581560149991,1.298295097669999,-2.9754975936999983
1698750509370,-0.7947870760149991,1.331462317669999,-2.9886234736999984
1698750509382,-0.7820625960149991,1.364955827669999,-3.0031331936999983
1698750509396,-0.768609886014999,1.398515057669999,-3.0188992336999982
1698750509410,-0.754423486014999,1.432167007669999,-3.035654943699998
1698750509424,-0.739433966014999,1.4673166676699991,-3.0524034036999983
1698750509438,-0.723697806014999,1.5045561376699992,-3.0683260636999985
1698750509451,-0.707191156014999,1.5428227076699992,-3.0838576136999984
1698750509466,-0.6902606760149991,1.5791477976699992,-3.0998579636999986
1698750509479,-0.673248076014999,1.6121436676699992,-3.1165496136999984
1698750509493,-0.656519996014999,1.6412967076699991,-3.1339608336999984
1698750509507,-0.639906736014999,1.6673241776699992,-3.1517100136999985
1698750509522,-0.6236909460149991,1.6908863976699993,-3.1695765036999983
1698750509536,-0.6080416960149991,1.7116253376699992,-3.1876884636999985
1698750509548,-0.5932113960149992,1.7301708976699992,-3.2067104836999984
1698750509562,-0.5789829660149992,1.7466190576699991,-3.2257321836999986
1698750509576,-0.5660068160149992,1.7622299776699992,-3.2448033136999985
1698750509591,-0.5537852960149993,1.7776177476699992,-3.2635813336999986
1698750509604,-0.5424003360149993,1.7928496876699993,-3.2824042436999985
1698750509618,-0.5313298360149993,1.8079143376699995,-3.301352143699998
1698750509633,-0.5203099260149993,1.8238362676699995,-3.3202250336999986
1698750509646,-0.5097131660149993,1.8405854476699992,-3.3391870836999984
1698750509660,-0.4992804460149992,1.8579940176699992,-3.358219803699998
1698750509675,-0.4892961630149993,1.8750352376699992,-3.377620123699998
1698750509688,-0.4791770030149992,1.8917191476699995,-3.397371703699998
1698750509702,-0.4693258970149992,1.9089722976699992,-3.417161893699998
1698750509715,-0.4602540050149992,1.9264987576699992,-3.436889003699998
1698750509729,-0.4518622450149992,1.94357180767,-3.456374673699998
1698750509743,-0.4444974260149992,1.9593177076699992,-3.475347623699998
1698750509757,-0.4381492190149992,1.9735809976699992,-3.493234893699998
1698750509771,-0.4325001760149992,1.9857252376699992,-3.5096395436999983
1698750509785,-0.4272147970149992,1.9957375076699992,-3.5242922336999984
1698750509800,-0.4221463100149992,2.004174371669999,-3.5371808036999983
1698750509812,-0.4170124950149992,2.011251497669999,-3.5481971736999984
1698750509826,-0.4116953640149992,2.016214371669999,-3.5579185276999983
1698750509841,-0.4058397680149992,2.019015624669999,-3.566219065699998
1698750509854,-0.3997603140149992,2.0197569070699988,-3.573191160699998
1698750509869,-0.3934178510149992,2.019175075969999,-3.5785197896999983
1698750509882,-0.3871418150149992,2.0170444479699987,-3.5823976866999985
1698750509896,-0.3812532510149992,2.013602971969999,-3.5849633036999986
1698750509911,-0.3756924140149992,2.009068113969999,-3.5865530216999986
1698750509923,-0.3705879680149992,2.004214675969999,-3.587131978399998
1698750509937,-0.3660395400149993,1.999426443969999,-3.5868874814999985
1698750509951,-0.3617066760149993,1.994342688969999,-3.5858477364999986
1698750509965,-0.3578309980149993,1.9889034279699989,-3.5844184654999984
1698750509979,-0.3542168130149993,1.9836984559699988,-3.5825969634999986
1698750509999,-0.3506299170149993,1.9783248119699988,-3.5806909114999987
1698750510007,-0.3473749150149993,1.972941487969999,-3.5786200824999987
1698750510018,-0.3441699730149993,1.9673003469699988,-3.5763940644999987
1698750510033,-0.3413878160149993,1.9611527189699989,-3.574133037499999
1698750510046,-0.3389044110149993,1.954844286969999,-3.5717577804999987
1698750510060,-0.3363086160149993,1.947728784969999,-3.569447728499999
1698750510074,-0.3334748650149993,1.939727912969999,-3.567423041499999
1698750510088,-0.3307417970149993,1.930733150969999,-3.5658636744999987
1698750510102,-0.3278278960149993,1.921286635969999,-3.564874489999999
1698750510115,-0.3251203540149993,1.9113376749699988,-3.564640514099999
1698750510129,-0.3226981360149993,1.901352266969999,-3.565438215799998
1698750510144,-0.3207048880149993,1.891545926969999,-3.5673070167999987
1698750510157,-0.3187155680149993,1.882637517969999,-3.569949605799999
1698750510171,-0.3169252620149992,1.875231052969999,-3.573645175799999
1698750510185,-0.3151883190149993,1.869019830969999,-3.578316128799999
1698750510199,-0.3133395830149992,1.864143834969999,-3.583682332799999
1698750510214,-0.3110731690149992,1.860353953969999,-3.589347611799999
1698750510227,-0.3083838060149992,1.857737741969999,-3.5950080447999992
1698750510241,-0.3054457310149993,1.856144867969999,-3.6002374177999994
1698750510255,-0.3020994320149993,1.855205251669999,-3.6049178358
1698750510268,-0.2985296220149993,1.854939004869999,-3.609056056799999
1698750510282,-0.2946152800149992,1.855119019869999,-3.6127981067999992
1698750510296,-0.2909418570149992,1.855097094089999,-3.6162996838
1698750510311,-0.2872696890149993,1.8541297522899989,-3.6195212357999993
1698750510325,-0.2837568930149993,1.852331422289999,-3.6223728667999993
1698750510338,-0.2804963150149993,1.849747158289999,-3.624570211799999
1698750510352,-0.2777724930149993,1.846593903289999,-3.626002636799999
1698750510366,-0.2755583390149992,1.843253073289999,-3.626306355099999
1698750510380,-0.2739539070149993,1.838992954289999,-3.625779901299999
1698750510394,-0.2728863440149993,1.8339441902899989,-3.624541726299999
1698750510408,-0.2725470744149992,1.828407080289999,-3.622659134299999
1698750510421,-0.2727903036149992,1.821723010289999,-3.620313789299999
1698750510436,-0.2734971335149992,1.813864834289999,-3.617310886299999
1698750510449,-0.2750069445149992,1.805384779289999,-3.613854797299999
1698750510463,-0.2770424475149992,1.796190643289999,-3.609772897299999
1698750510477,-0.2799191235149992,1.786796517289999,-3.605265474299999
1698750510491,-0.2833054565149993,1.777798715289999,-3.6006969952999985
1698750510505,-0.2874311175149993,1.769219536289999,-3.5965378972999984
1698750510519,-0.2923530495149993,1.761985017289999,-3.5928284652999984
1698750510533,-0.2978963925149993,1.7559629952899989,-3.589679651299998
1698750510546,-0.3040428415149993,1.7512601362899989,-3.5870722312999983
1698750510560,-0.3106797355149993,1.747743574289999,-3.5850094122999985
1698750510575,-0.3175778175149992,1.745513633289999,-3.583096667299998
1698750510588,-0.3247827285149992,1.744494517289999,-3.5813501662999987
1698750510602,-0.3323753095149992,1.744010774489999,-3.579789895299999
1698750510617,-0.3400245565149992,1.744374792789999,-3.5780339452999987
1698750510631,-0.3478118255149992,1.7452026806899992,-3.5759294342999985
1698750510644,-0.3556601765149992,1.7458378076899992,-3.5736420472999986
1698750510658,-0.3635294105149992,1.7461110659899992,-3.5710925462999987
1698750510672,-0.3713890185149992,1.7458762433899992,-3.568440057299999
1698750510686,-0.3786121015149992,1.7453141486899992,-3.565456494299999
1698750510700,-0.3857746485149992,1.7446778954899993,-3.561743355299999
1698750510713,-0.3926002665149992,1.7440433087899994,-3.557291945299999
1698750510727,-0.3990942005149992,1.7429500837899994,-3.552248113299999
1698750510741,-0.4051447175149992,1.741141275789999,-3.5466706192999986
1698750510755,-0.4106399725149992,1.7388108957899993,-3.5407108202999984
1698750510769,-0.4157026595149992,1.735922429789999,-3.5344953042999983
1698750510783,-0.4206162155149991,1.7327730677899993,-3.528211570299998
1698750510797,-0.4253432635149992,1.7296363747899992,-3.521794290299998
1698750510811,-0.4297850035149991,1.7270834817899992,-3.515259376299998
1698750510824,-0.4339742425149991,1.7256319607899993,-3.5085282732999983
1698750510839,-0.4381183425149991,1.724906452689999,-3.501615454299998
1698750510853,-0.4421037465149992,1.7248663216299993,-3.4945362782999982
1698750510867,-0.4456545585149992,1.7254338406299994,-3.486894025299998
1698750510880,-0.4492292125149992,1.7264276198299997,-3.478886198299998
1698750510894,-0.4526608425149992,1.7271562266299996,-3.470438999299998
1698750510908,-0.4559182835149992,1.7274266437299997,-3.461789149299998
1698750510922,-0.4588215925149992,1.7275481904299996,-3.452993898299998
1698750510936,-0.4614606595149992,1.7281404424299995,-3.444198604299998
1698750510950,-0.4639101625149992,1.7293684954299997,-3.435307777299998
1698750510964,-0.4661137055149992,1.7313217334299995,-3.426578658299998
1698750510978,-0.4681789625149992,1.7336807544299997,-3.417756290299998
1698750510992,-0.4701067115149991,1.7360096424299996,-3.4089095752999983
1698750511007,-0.4721715825149992,1.7374376764299997,-3.4001247982999985
1698750511020,-0.4745863295149992,1.7376695149299994,-3.391288790299998
1698750511034,-0.4767803735149992,1.7368250240299994,-3.3822101362999986
1698750511048,-0.4789610715149991,1.7349011530299994,-3.3731426172999988
1698750511061,-0.4811503435149992,1.731830094029999,-3.3642816102999986
1698750511075,-0.4830656455149992,1.7282661870299991,-3.3554891172999985
1698750511089,-0.4846758425149992,1.7245939540299993,-3.3471857902999984
1698750511103,-0.4856636491149991,1.7212687410299992,-3.3389333982999982
1698750511117,-0.4864243131149992,1.7188812090299992,-3.3310242942999984
1698750511130,-0.4868975488149992,1.7175173550299991,-3.3234739982999986
1698750511145,-0.4868885971749992,1.7168593398299992,-3.3166252922999986
1698750511159,-0.4862894680749992,1.7165398063299993,-3.3106725322999986
1698750511172,-0.4853466494749992,1.7165856106399993,-3.3057321182999986
1698750511186,-0.4840346574749992,1.7174871672399992,-3.3016064132999987
1698750511201,-0.4822892624749992,1.7194214422399992,-3.298150837299999
1698750511214,-0.4801435574749992,1.722011510239999,-3.295602579299999
1698750511228,-0.4776634544749992,1.7251335232399991,-3.293794614299999
1698750511242,-0.4745390624749993,1.7289479502399991,-3.292457692299999
1698750511256,-0.4708728764749992,1.733059824239999,-3.291548692099999
1698750511270,-0.4668920684749992,1.7371541492399991,-3.290836012899999
1698750511284,-0.4622340614749992,1.741298584239999,-3.290408940499999
1698750511298,-0.4572923554749992,1.745433787239999,-3.290171934499999
1698750511312,-0.4519535354749992,1.749966360239999,-3.290299401399999
1698750511325,-0.4463320754749992,1.7544480462399992,-3.290648517699999
1698750511339,-0.4401736154749992,1.7583697062399992,-3.291530151399999
1698750511353,-0.4336582614749992,1.7612458062399992,-3.292895586399999
1698750511368,-0.4267335954749992,1.763358987239999,-3.294512459399999
1698750511381,-0.4194115824749992,1.764644225239999,-3.296130413399999
1698750511395,-0.4117390214749992,1.7654345263399989,-3.297681927399999
1698750511408,-0.4035484974749992,1.7660475040399988,-3.2992655363999988
1698750511422,-0.3949264904749992,1.7660567436319987,-3.3009518523999986
1698750511436,-0.3860275824749992,1.7653720973319986,-3.3029300283999987
1698750511450,-0.3770260384749992,1.7641069533319986,-3.3053516563999987
1698750511464,-0.3678484474749993,1.7626605353319986,-3.3081314743999988
1698750511478,-0.3582995354749992,1.761318908331999,-3.311132928399999
1698750511492,-0.3488173134749993,1.7598026773319986,-3.314662978399999
1698750511506,-0.3390291894749992,1.7580378743319989,-3.318605933399999
1698750511520,-0.3294943254749993,1.7566216243319988,-3.323078713399999
1698750511534,-0.3201537674749993,1.7557088948319988,-3.327813572399999
1698750511548,-0.3111931074749993,1.7553370128319987,-3.332738390399999
1698750511561,-0.3028408854749992,1.755122042831999,-3.337977647399999
1698750511575,-0.2950076344749993,1.754574093531999,-3.343686179399999
1698750511590,-0.2876545824749992,1.7537878616319986,-3.350266936399999
1698750511603,-0.2807617914749992,1.7526255016319987,-3.3579365153999987
1698750511617,-0.2743913634749992,1.7518167518319987,-3.3667439283999987
1698750511633,-0.2684117374749992,1.7509322357319987,-3.376559221399998
1698750511645,-0.2626740284749992,1.7498859997319989,-3.3875748113999986
1698750511658,-0.2569854964749992,1.7489608449319989,-3.3995202913999987
1698750511673,-0.2518705404749992,1.7488588730319987,-3.412004251399998
1698750511687,-0.2469933824749992,1.7492251999319988,-3.4250360513999984
1698750511701,-0.2419690534749992,1.7497567324319987,-3.438531501399998
1698750511714,-0.2368806614749992,1.7501283416319986,-3.4526668913999985
1698750511728,-0.2316834904749992,1.749955098231999,-3.4673213013999984
1698750511742,-0.2264057644749992,1.7492570287319986,-3.4825535213999985
1698750511756,-0.2206391584749992,1.7488366353319986,-3.4980334313999983
1698750511770,-0.2148055504749992,1.7489345695719989,-3.5137636413999984
1698750511785,-0.2084546154749992,1.7492006337719987,-3.5296021113999982
1698750511798,-0.2014785814749992,1.7498455596719988,-3.5456349013999984
1698750511811,-0.1941155054749992,1.7506596163719987,-3.5618948113999984
1698750511825,-0.1866534944749992,1.7521784843719987,-3.5782915013999985
1698750511840,-0.1790501334749992,1.7544624193719986,-3.5948785213999983
1698750511853,-0.1712102344749992,1.7571869993719986,-3.6118375613999993
1698750511868,-0.1634839804749992,1.7597034993719989,-3.6293092313999984
1698750511881,-0.1558418944749992,1.7609985833719983,-3.6473948613999982
1698750511895,-0.1485304254749992,1.7614975625719986,-3.6658930313999982
1698750511909,-0.1418738674749992,1.7619060151719987,-3.6846644613999984
1698750511923,-0.1352675594749992,1.7623865341719986,-3.7032487614
1698750511937,-0.1286939714749992,1.7633118578719986,-3.721558091399999
1698750511951,-0.1220011024749992,1.7642610498719986,-3.739724191399999
1698750511964,-0.1151927804749992,1.7653267408719986,-3.758145161399999
1698750511978,-0.1082890844749992,1.7664268258719986,-3.776988691399999
1698750511992,-0.1015767954749992,1.7676373728719983,-3.796727811399999
1698750512006,-0.0950559074749992,1.7690027998719986,-3.817350611399999
1698750512020,-0.0890184064749992,1.7703581678719986,-3.838988491399999
1698750512034,-0.0835233284749992,1.7717318958719983,-3.861677741399999
1698750512048,-0.0783464444749992,1.7732762168719984,-3.885270581399999
1698750512061,-0.0736584604749992,1.7752110528719984,-3.909432691399999
1698750512075,-0.0692765014749992,1.7773109828719984,-3.933762611399999
1698750512089,-0.0651792204749992,1.7793927098719984,-3.958108191399999
1698750512103,-0.0613387204749992,1.7815175808719983,-3.982503201399999
1698750512117,-0.0575968294749992,1.7836292358719985,-4.007033721399999
1698750512131,-0.0538132754749992,1.7857467488719982,-4.031663741399999
1698750512145,-0.0500401654749992,1.7879654678719985,-4.056248201399999
1698750512159,-0.0464995704749992,1.7901358888719985,-4.080823461399999
1698750512173,-0.0426444254749992,1.7925021678719983,-4.105216991399999
1698750512186,-0.0386918604749992,1.7947715668719983,-4.129538011399999
1698750512201,-0.0348529734749992,1.7970216348719985,-4.1533889214
1698750512215,-0.0312068544749992,1.7994154878719983,-4.1767426414
1698750512228,-0.0275958354749992,1.8020216288719983,-4.1995003914
1698750512242,-0.0242021274749992,1.8044578538719984,-4.2220790214
1698750512256,-0.0208365864749992,1.8066384868719985,-4.2444329914
1698750512270,-0.0178588684749992,1.8087844958719983,-4.2667799014000005
1698750512283,-0.0150835194749992,1.8104539898719985,-4.2890095514
1698750512298,-0.0125392514749992,1.8115464298719983,-4.3111745014
1698750512312,-0.0099565044749992,1.8118069431719983,-4.3333401614
1698750512325,-0.0072306764749992,1.8118015940039984,-4.3551728314
1698750512339,-0.0049605644749992,1.8117095008739983,-4.3765564414
1698750512353,-0.0035248734749992,1.8114633539739984,-4.3973481114
1698750512368,-0.0025831303749992,1.8111149664739985,-4.4176545714
1698750512381,-0.0030030134749992,1.8102192317739985,-4.4374020314
1698750512395,-0.0045280494749992,1.8085201617739983,-4.456581281399999
1698750512409,-0.0068279834749992,1.8059018257739985,-4.4748390014
1698750512423,-0.0100077044749992,1.8027414747739985,-4.4923605914
1698750512436,-0.0139763304749992,1.7997831487739986,-4.5086850714
1698750512450,-0.0188106864749992,1.7977253097739987,-4.5237147814
1698750512465,-0.0238542764749992,1.7961120747739987,-4.5379523214
1698750512478,-0.0288667244749992,1.7946650247739988,-4.551473961399999
1698750512492,-0.0336844914749992,1.7934480567739988,-4.564184151399999
1698750512506,-0.0381705334749992,1.7923621837739987,-4.576050231399999
1698750512520,-0.0420127424749992,1.7910664577739988,-4.586939801399999
1698750512534,-0.0454140934749992,1.7895131477739987,-4.596862643399999
1698750512548,-0.0483071294749992,1.7875804577739989,-4.605683529399999
1698750512562,-0.0510290124749992,1.7853476547739986,-4.613448845399999
1698750512576,-0.0533055884749992,1.7829191817739989,-4.620057580399999
1698750512589,-0.0552745524749992,1.7803061747739988,-4.625634300399999
1698750512603,-0.0568202284749992,1.7774711157739989,-4.630070088399999
1698750512622,-0.0574989458749992,1.774670033773999,-4.633140805399999
1698750512631,-0.0579576244749992,1.7726372877739989,-4.634941147399999
1698750512645,-0.0581371758749992,1.7704686207739988,-4.635573668299999
1698750512659,-0.0583628369749992,1.7678351207739988,-4.635179702099999
1698750512673,-0.0593351680749992,1.7645757567739988,-4.6336498091
1698750512687,-0.0607385880749992,1.7611713487739988,-4.6307787781
1698750512701,-0.0625573030749993,1.7585237007739989,-4.6258762551
1698750512714,-0.0646791650749993,1.757379299773999,-4.6192806661
1698750512728,-0.0675509500749993,1.757180714273999,-4.6115234231
1698750512742,-0.0710208460749993,1.756819197873999,-4.6027166861
1698750512756,-0.0747396700749992,1.757101488473999,-4.5928864751
1698750512770,-0.0782713000749992,1.757743463473999,-4.5820552651
1698750512784,-0.0819644680749992,1.758219776773999,-4.5704247851
1698750512798,-0.0860544060749992,1.758110898673999,-4.5581454551
1698750512811,-0.0900188640749992,1.757546597973999,-4.5449145551
1698750512825,-0.0941619150749992,1.756683323673999,-4.5307308751
1698750512840,-0.0985461610749992,1.755475461673999,-4.5152784551
1698750512853,-0.1031563210749992,1.7534702656739989,-4.4987709251
1698750512867,-0.1078754210749992,1.7506808136739989,-4.4812893051
1698750512881,-0.1125840000749992,1.748106965673999,-4.4624046451
1698750512895,-0.1172288070749992,1.7457853716739988,-4.4420939451
1698750512909,-0.1215299410749992,1.7436860176739988,-4.4200385851
1698750512923,-0.1259501240749992,1.7409393346739988,-4.3967799451
1698750512937,-0.1304837070749993,1.7377808926739988,-4.3725587851
1698750512951,-0.1346792620749992,1.7337551756739988,-4.3478186051
1698750512964,-0.1386382740749993,1.7284462476739988,-4.3228823551
1698750512978,-0.1419418480749993,1.7223593886739987,-4.2977573751
1698750512992,-0.1448233450749993,1.7157865956739988,-4.2725929951
1698750513006,-0.1470094730749993,1.7090835376739988,-4.2471222251
1698750513020,-0.1487372570749993,1.7014534726739987,-4.2217960351
1698750513035,-0.1502787500749993,1.6924645796739988,-4.1968968951
1698750513048,-0.1519911420749993,1.6832746856739988,-4.1720849651
1698750513062,-0.1537335370749993,1.6752769176739988,-4.146989685099999
1698750513075,-0.1560154320749993,1.6679231356739987,-4.122078105099999
1698750513089,-0.1591874810749993,1.6599756866739988,-4.097719445099999
1698750513103,-0.1631921570749993,1.6518735086739988,-4.0741464151
1698750513117,-0.1679087090749993,1.6445654926739988,-4.0512306251
1698750513131,-0.1734209330749994,1.6384566766739987,-4.0293278651
1698750513145,-0.1795528560749994,1.6338826426739987,-4.0084608751
1698750513159,-0.1858220670749994,1.6307852446739988,-3.9888381951
1698750513173,-0.1925912880749994,1.6289364086739988,-3.9704895451
1698750513187,-0.1996445060749994,1.6281073191739988,-3.9532971751
1698750513201,-0.2072995830749994,1.6275072088739988,-3.9372642451
1698750513214,-0.2154858820749994,1.6269251086739989,-3.9223194051
1698750513228,-0.2242247020749994,1.626601713473999,-3.9082789151
1698750513242,-0.2335861330749994,1.626401480873999,-3.8949125351
1698750513257,-0.2436643730749994,1.626151043473999,-3.8822040451
1698750513272,-0.2539446530749994,1.625573432473999,-3.8697168951
1698750513285,-0.2642659830749994,1.624106619473999,-3.8577145451
1698750513298,-0.2745509030749994,1.622053398473999,-3.8462771751
1698750513312,-0.2849176630749994,1.6199370074739992,-3.8353283551
1698750513326,-0.2950200730749994,1.6183592684739991,-3.8247417951
1698750513340,-0.3044670300749993,1.617557715073999,-3.8145779551
1698750513354,-0.3136722430749993,1.616427394073999,-3.8052060341
1698750513369,-0.3225227290749993,1.614970842073999,-3.7968027451
1698750513381,-0.3312903790749993,1.613162290073999,-3.7891132731
1698750513395,-0.3398273320749994,1.611902477073999,-3.7819092051
1698750513409,-0.3481593790749994,1.611416317073999,-3.775034927099999
1698750513423,-0.3560526670749994,1.611766708773999,-3.7686308720999993
1698750513436,-0.3635308850749993,1.6130072767739991,-3.7626149350999993
1698750513450,-0.3710839320749993,1.614669572773999,-3.757104612099999
1698750513465,-0.3783020630749993,1.616858870773999,-3.752254925099999
1698750513478,-0.3850670940749993,1.619564008773999,-3.747954364099999
1698750513492,-0.3918499070749993,1.622520244773999,-3.744168721099999
1698750513507,-0.3985530490749993,1.625480356773999,-3.740583793099999
1698750513521,-0.4053891240749993,1.628949466773999,-3.737078087099999
1698750513534,-0.4123289330749993,1.632685121773999,-3.733660026099999
1698750513548,-0.4190233420749993,1.6365343617739991,-3.730241272099999
1698750513562,-0.4260669570749993,1.6403781457739992,-3.726716552099999
1698750513576,-0.4329412140749993,1.6440054517739993,-3.723040697099999
1698750513590,-0.4397336280749994,1.6473668687739993,-3.718754692099999
1698750513604,-0.4463263480749994,1.6504327647739994,-3.713930726099999
1698750513618,-0.4528706890749994,1.652742484773999,-3.708473256099999
1698750513632,-0.4592461250749994,1.6544046977739992,-3.7027860440999993
1698750513645,-0.4651900400749994,1.6550972174739993,-3.696620694099999
1698750513660,-0.4713372770749994,1.655063143753999,-3.690581392099999
1698750513673,-0.4775351700749994,1.6538655637539994,-3.684645686099999
1698750513687,-0.4840237510749994,1.651909281753999,-3.678649035099999
1698750513701,-0.4904388490749994,1.6504526567539992,-3.672521091099999
1698750513714,-0.4967871050749994,1.6506631853539993,-3.666051674099999
1698750513728,-0.5031332420749994,1.6524479553539992,-3.659092068099999
1698750513743,-0.5095772750749994,1.6555376923539993,-3.652426636099999
1698750513756,-0.5152921510749994,1.6589490323539993,-3.645879373099999
1698750513770,-0.5204994940749994,1.6626063963539992,-3.639668650099999
1698750513784,-0.5249038020749994,1.6663247663539993,-3.633928965099999
1698750513798,-0.5287199330749994,1.669762221353999,-3.628017559099999
1698750513812,-0.5316778070749995,1.6736097683539992,-3.621610364099999
1698750513825,-0.5340437090749994,1.678497085353999,-3.614324494099999
1698750513840,-0.5353862640749995,1.684200626353999,-3.606518887099999
1698750513854,-0.5358198296749994,1.690282683353999,-3.598361585099999
1698750513868,-0.5354460079749994,1.696126316353999,-3.5897591610999986
1698750513881,-0.5341949119749995,1.701426541353999,-3.5806685320999985
1698750513897,-0.5324412669749995,1.705680302353999,-3.5708346720999984
1698750513909,-0.5296941039749995,1.708957763353999,-3.5605886220999983
1698750513923,-0.5259772739749995,1.711305290353999,-3.5496529020999983
1698750513937,-0.5218212929749995,1.712335461353999,-3.538263942099998
1698750513951,-0.5176500169749995,1.7118809956539989,-3.5268937820999984
1698750513965,-0.5136030859749995,1.711168125353999,-3.514780702099998
1698750513979,-0.5100430899749995,1.710867195553999,-3.5024151820999982
1698750513993,-0.5064125459749995,1.710520705153999,-3.4896012120999984
1698750514007,-0.5029498299749995,1.709660202253999,-3.4766078720999984
1698750514020,-0.4999405129749995,1.707939482253999,-3.4634313020999983
1698750514035,-0.4975358969749994,1.705676249253999,-3.450299312099998
1698750514048,-0.4956904809749994,1.702925074253999,-3.437441812099998
1698750514062,-0.4945050019749994,1.699905788253999,-3.424787532099998
1698750514076,-0.4940159202749994,1.697390309253999,-3.4122709620999983
1698750514090,-0.4935885703749995,1.6959113212539991,-3.399949762099998
1698750514104,-0.4937054173749994,1.6951175685539992,-3.388130692099998
1698750514118,-0.4942168270749995,1.6955157335539992,-3.376568042099998
1698750514132,-0.4950695660749994,1.6972586295539993,-3.365106162099998
1698750514145,-0.4962222520749995,1.6996466815539992,-3.353699792099998
1698750514160,-0.4975948450749994,1.7018908455539992,-3.342607972099998
1698750514174,-0.4991376750749994,1.7034511325539992,-3.331811022099998
1698750514187,-0.5010721040749995,1.7044591185539992,-3.3213680520999977
1698750514201,-0.5034583560749994,1.7047926299539993,-3.311212292099998
1698750514215,-0.5062922730749995,1.7048785074539994,-3.301212719099998
1698750514228,-0.5093343840749994,1.7051455381539993,-3.291135799099998
1698750514242,-0.5128239020749994,1.7063543421539993,-3.2808350890999978
1698750514257,-0.5166773440749994,1.7083486781539994,-3.2701851690999977
1698750514271,-0.5213795640749994,1.7103153231539994,-3.259294589099998
1698750514286,-0.5267295320749994,1.7118396291539997,-3.2480439690999976
1698750514298,-0.5329512150749994,1.7125630404539995,-3.236763739099997
1698750514312,-0.5399087440749994,1.7121737137539996,-3.225440959099997
1698750514326,-0.5475498860749994,1.7104940157539996,-3.2144051490999974
1698750514340,-0.5557874500749994,1.7078694107539996,-3.2035144190999976
1698750514354,-0.5644792630749994,1.7049881137539995,-3.1928877190999976
1698750514369,-0.5734894700749994,1.7022504337539994,-3.1826101390999977
1698750514382,-0.5831607070749993,1.7000455027539991,-3.172810215099997
1698750514395,-0.5927344750749993,1.6986131667539994,-3.163165472099997
1698750514409,-0.6023230400749994,1.6979238651539994,-3.1537132170999977
1698750514423,-0.6118351290749994,1.6974979165539994,-3.1445228480999976
1698750514438,-0.6214512360749994,1.6966841527539993,-3.1356380580999974
1698750514451,-0.6311873440749994,1.6961869930539992,-3.126990537099997
1698750514466,-0.6409985130749994,1.6960126217539992,-3.118475644099997
1698750514479,-0.6507911330749995,1.6960105721889993,-3.110088144099997
1698750514492,-0.6607602930749995,1.6960860472089994,-3.101670717099997
1698750514506,-0.6707029070749995,1.6967441197089994,-3.0932555570999973
1698750514521,-0.6807511270749995,1.698178473708999,-3.084562968099997
1698750514534,-0.6911910070749995,1.6998478237089991,-3.075450495099997
1698750514548,-0.7021369270749995,1.7014596197089993,-3.0658314010999974
1698750514562,-0.7132322570749995,1.703085932708999,-3.0557113210999973
1698750514576,-0.7248793970749995,1.7042656527089994,-3.044997901099997
1698750514590,-0.7369697370749995,1.7047693821089995,-3.0335584810999974
1698750514605,-0.7495012970749995,1.7046758892989995,-3.021292741099997
1698750514618,-0.7625210370749994,1.7037410937989994,-3.008111791099997
1698750514632,-0.7761884870749994,1.7017422607989994,-2.994104751099997
1698750514646,-0.7901470170749995,1.699582613798999,-2.9791491210999967
1698750514660,-0.8041362470749994,1.6973648687989993,-2.963293481099997
1698750514675,-0.8185405970749994,1.6952211857989994,-2.946724121099997
1698750514687,-0.8330120970749993,1.6931125877989994,-2.929510601099997
1698750514701,-0.8474904170749994,1.6906584377989995,-2.911921311099997
1698750514714,-0.8621963070749994,1.6883733597989994,-2.893876011099997
1698750514728,-0.8768907070749994,1.686235060798999,-2.875423981099997
1698750514743,-0.8915928670749994,1.6847000807989994,-2.8564542310999967
1698750514756,-0.9063442570749994,1.6836887977989994,-2.836981941099997
1698750514770,-0.9211225170749996,1.6828169961989994,-2.8170379410999966
1698750514784,-0.9358876770749996,1.6820350117989993,-2.796597211099997
1698750514798,-0.9510708970749996,1.6813978830989993,-2.775895561099997
1698750514812,-0.9664457170749996,1.680718189698999,-2.754764601099997
1698750514825,-0.9818742870749996,1.6803235742989993,-2.733120421099997
1698750514840,-0.9978251570749996,1.6799860212989992,-2.711033491099997
1698750514854,-1.0140301770749995,1.6798223395989993,-2.688259201099997
1698750514868,-1.0302794770749997,1.6797394368789993,-2.664289461099997
1698750514881,-1.0466396670749996,1.6801010674789991,-2.6387197010999968
1698750514895,-1.0630147570749997,1.6808649780789993,-2.611639071099997
1698750514910,-1.0791265770749994,1.6812691369789992,-2.583265821099997
1698750514924,-1.0953991870749993,1.680792721778999,-2.553971651099997
1698750514938,-1.1115978770749992,1.679428202778999,-2.524030911099997
1698750514951,-1.1276805970749992,1.677602082778999,-2.493318201099997
1698750514965,-1.1440334170749993,1.675659229778999,-2.461766741099997
1698750514979,-1.1600362170749994,1.673994600778999,-2.4289386410999967
1698750514993,-1.176043537074999,1.672534010778999,-2.3949572410999966
1698750515007,-1.192196257074999,1.670945034778999,-2.3600256310999965
1698750515020,-1.2084583170749994,1.6690415537789989,-2.3240261210999966
1698750515035,-1.2245495870749994,1.6670784107789989,-2.2868796010999968
1698750515048,-1.240621577074999,1.664621662778999,-2.2485745710999967
1698750515063,-1.256894097074999,1.661833246778999,-2.209399741099997
1698750515076,-1.2733865070749992,1.6582227077789988,-2.169448961099997
1698750515090,-1.2900157870749993,1.6539461557789987,-2.128687091099997
1698750515104,-1.3066986870749993,1.650239199778999,-2.0872256310999973
1698750515118,-1.3236181870749992,1.6469940477789986,-2.045090641099997
1698750515132,-1.3410199070749993,1.6442803097789986,-2.002294271099997
1698750515146,-1.3587324170749993,1.6422261877789983,-1.9590188710999967
1698750515159,-1.3766312370749991,1.6404865407789986,-1.9153456010999967
1698750515173,-1.395235727074999,1.638909543778999,-1.8711380310999968
1698750515187,-1.4143935570749993,1.6380884912789986,-1.8262049510999967
1698750515202,-1.4341850370749991,1.638295837678999,-1.780418101099997
1698750515215,-1.4544312870749994,1.6396722976789986,-1.733525911099997
1698750515229,-1.4752617970749993,1.6420845566789986,-1.685388331099997
1698750515243,-1.4970806970749992,1.6444257076789983,-1.6363405810999971
1698750515257,-1.5201317170749993,1.6460508036789985,-1.586644311099997
1698750515272,-1.5445464770749993,1.6468516208789985,-1.536290701099997
1698750515284,-1.5705719970749992,1.6469349258089985,-1.4850384510999972
1698750515300,-1.5980534770749992,1.6467220429089984,-1.4327324610999972
1698750515312,-1.6274095070749992,1.6458542625089985,-1.3788891910999972
1698750515326,-1.6585013470749992,1.6445226115089984,-1.323576911099997
1698750515340,-1.6912171670749991,1.6432741935089985,-1.2666038310999972
1698750515354,-1.7255517570749992,1.6421077435089984,-1.2079523310999971
1698750515369,-1.7615428070749992,1.6408330945089984,-1.147695601099997
1698750515383,-1.7987931470749992,1.6392635905089985,-1.085695521099997
1698750515396,-1.8371191570749992,1.6371329875089984,-1.022047361099997
1698750515409,-1.8764698870749992,1.6336578725089983,-0.9564545310999968
1698750515423,-1.9165277170749992,1.6286596715089985,-0.8889423210999969
1698750515438,-1.9576176570749992,1.6226241475089982,-0.8191348910999969
1698750515451,-1.9999978770749995,1.6161231565089982,-0.7464139210999969
1698750515465,-2.0436707970749994,1.6086715945089982,-0.671472491099997
1698750515478,-2.0884638470749994,1.5996558965089982,-0.5942755410999969
1698750515492,-2.1341591770749995,1.5897371915089982,-0.5146170810999969
1698750515507,-2.180879797075,1.5806922595089985,-0.4313778610999969
1698750515521,-2.228400837075,1.5735408375089983,-0.3444771710999969
1698750515536,-2.276819817075,1.5676544395089984,-0.2540930410999969
1698750515548,-2.326096107075,1.5615469145089984,-0.1617054410999969
1698750515562,-2.376035367074999,1.5544614435089985,-0.0675549110999969
1698750515576,-2.426591537075,1.5462636905089986,0.028187328900003
1698750515590,-2.4774919070749992,1.5382535735089986,0.1262307289000031
1698750515604,-2.528240407075,1.5308305165089986,0.226621328900003
1698750515617,-2.5788504370749994,1.5234698275089986,0.329071428900003
1698750515632,-2.6293222970749994,1.5167215655089987,0.433266828900003
1698750515646,-2.679698457075,1.5111025445089987,0.5388078289000031
1698750515659,-2.730487307075,1.5054708995089987,0.6451577289000031
1698750515674,-2.7812649170749992,1.4988112135089986,0.7517902289000031
1698750515688,-2.832220477074999,1.4900102005089986,0.8583528289000031
1698750515701,-2.883555507074999,1.4791306705089986,0.9656118289000032
1698750515715,-2.934738957074999,1.4677128305089986,1.074787028900003
1698750515729,-2.985120037075,1.4578046715089985,1.186523828900003
1698750515743,-3.034918217074999,1.4492437975089985,1.300499128900003
1698750515757,-3.084503547075,1.4401979955089983,1.416226828900003
1698750515771,-3.133919597075,1.4284640355089986,1.5326987289000031
1698750515785,-3.1829681970749992,1.4130084255089983,1.6497308289000032
1698750515799,-3.231234097075,1.3952852255089985,1.7676713289000032
1698750515812,-3.278440647074999,1.3771304755089984,1.887163128900004
1698750515826,-3.323977997074999,1.3587733055089983,2.0083281289000032
1698750515840,-3.367455247074999,1.3385293655089985,2.1305670289000034
1698750515855,-3.408667147074999,1.3152998055089982,2.253711628900003
1698750515868,-3.447177677074999,1.2902949855089982,2.377891628900003
1698750515881,-3.482898517075,1.2651892555089983,2.503744728900003
1698750515896,-3.515682527074999,1.2422131955089983,2.631900228900004
1698750515910,-3.545207827074999,1.2216624855089984,2.762415328900003
1698750515924,-3.571658477075,1.2032998955089984,2.895302928900003
1698750515938,-3.594992907074999,1.1869909255089983,3.030699828900003
1698750515951,-3.6153630570749993,1.1735455755089983,3.169432928900003
1698750515966,-3.6330653270749993,1.1631452055089984,3.311711728900004
1698750515979,-3.648017957074999,1.1554910105089984,3.458229428900004
1698750515993,-3.659634337074999,1.1498047625089984,3.6094067289000034
1698750516006,-3.667516448074999,1.1456560395089983,3.7658526289000034
1698750516019,-3.671751440074999,1.1426707135089986,3.928044928900004
1698750516033,-3.671668887644999,1.1410713405089987,4.097321128900004
1698750516048,-3.666729405644999,1.1405448211089988,4.274326228900003
1698750516061,-3.656320525644999,1.1415524941089987,4.459972228900003
1698750516077,-3.639813645644999,1.1449264271089987,4.655212228900004
1698750516090,-3.616874735644999,1.1506755301089988,4.859692828900004
1698750516104,-3.586933405644998,1.1581775041089988,5.074200328900004
1698750516117,-3.5503831056449986,1.165795123108999,5.297903328900004
1698750516131,-3.5062148756449987,1.1734902741089988,5.532107228900004
1698750516145,-3.4546840156449985,1.1805179491089988,5.776981528900004
1698750516159,-3.3957448456449986,1.1862939031089987,6.033113728900004
1698750516173,-3.3291169156449985,1.1898366981089987,6.301770628900004
1698750516187,-3.2554273256449986,1.1900997594089988,6.582870728900003
1698750516201,-3.1748920356449988,1.1865728184089988,6.877340128900003
1698750516215,-3.088318125644999,1.1796611874089988,7.184942228900002
1698750516228,-2.995608395644999,1.169061587408999,7.505661628900002
1698750516242,-2.896410185644999,1.1541345074089988,7.840025128900002
1698750516256,-2.791251085644999,1.1355423674089988,8.186951228900002
1698750516270,-2.679640785644999,1.1130365774089988,8.547791928900002
1698750516284,-2.5615999856449987,1.0860012774089989,8.922025228900003
1698750516298,-2.4371088856449985,1.0562487474089988,9.308987628900002
1698750516313,-2.3058137856449985,1.0259597274089989,9.709457428900002
1698750516327,-2.1681885856449985,0.9946385674089988,10.122426828900002
1698750516340,-2.0234396856449983,0.9614379274089988,10.5488607289
1698750516354,-1.8720530856449984,0.9259246774089986,10.9883631289
1698750516369,-1.7140446856449985,0.8888123874089986,11.4418574289
1698750516381,-1.5494677856449983,0.8500566774089986,11.9088314289
1698750516395,-1.3784717856449986,0.8099104374089986,12.3880686289
1698750516409,-1.2008900856449989,0.7690532574089985,12.8798229289
1698750516423,-1.0165557856449987,0.7283037674089985,13.3850266289
1698750516437,-0.8255713856449987,0.6883315374089984,13.9031291289
1698750516450,-0.6279002856449987,0.6492196474089984,14.4340993289
1698750516465,-0.4232876856449986,0.6114767274089984,14.9778998289
1698750516478,-0.2111675856449986,0.5752597874089984,15.5348758289
1698750516492,0.0078741143550013,0.5391390474089984,16.1037251289
1698750516506,0.2334664143550013,0.5031882274089984,16.684052628899998
1698750516520,0.4652738143550013,0.4683803474089983,17.2758539289
1698750516534,0.7030583143550013,0.4353450274089984,17.8789231289
1698750516548,0.9464463143550012,0.4061825674089984,18.4938207289
1698750516562,1.1946507143550011,0.3835105274089984,19.1201133289
1698750516576,1.4473617143550013,0.3753573624089983,19.7598252289
1698750516589,1.7050150143550011,0.3915250924089983,20.4144152289
1698750516603,1.9663134143550007,0.4284567024089983,21.0824393289
1698750516617,2.228176014355001,0.4750271724089984,21.7597029289
1698750516633,2.4891526143550013,0.5334758124089984,22.4464220289
1698750516645,2.749603914355001,0.6060359324089984,23.1416174289
1698750516659,3.0091385143550013,0.6889804224089985,23.8433685289
1698750516673,3.266860214355001,0.7759480524089984,24.5480903289
1698750516687,3.520203114355001,0.8611783224089984,25.2518823289
1698750516702,3.766567414355001,0.9384403824089984,25.9508611289
1698750516715,4.003736114355001,1.0031907124089985,26.6424654289
1698750516729,4.230158714355001,1.0530682024089986,27.3246181289
1698750516743,4.444154414355001,1.0874549124089985,27.9964195289
1698750516756,4.6441719143550015,1.1103279924089986,28.6588859289
1698750516770,4.829372914355002,1.1276136524089986,29.3143042289
1698750516786,4.999359214355001,1.1442132024089986,29.9640466289
1698750516798,5.1554347143550014,1.163618902408999,30.6101450289
1698750516811,5.298295314355001,1.187055232408999,31.2535732289
1698750516825,5.428502914355001,1.2147673124089986,31.8944894289
1698750516840,5.546268214355002,1.244613962408999,32.5322823289
1698750516854,5.652739214355002,1.2767117124089986,33.16702632889999
1698750516868,5.749928904355002,1.3137786624089989,33.800273628899994
1698750516882,5.840567574355002,1.3560912724089986,34.4329860289
1698750516895,5.9259823743550015,1.4009179424089986,35.0659050289
1698750516909,6.007691704355001,1.4455743524089986,35.7004497289
1698750516923,6.087246114355001,1.4889041024089986,36.3375585289
1698750516938,6.165175284355001,1.5303650824089987,36.9791987289
1698750516951,6.2424237043550015,1.5685722824089987,37.62725852889999
1698750516965,6.319407664355001,1.6012919124089988,38.2833080289
1698750516978,6.3955776643550015,1.6266779224089989,38.9487397289
1698750516992,6.471394474355002,1.643284082408999,39.6238907289
1698750517006,6.547072674355001,1.649776319408999,40.3087983289
1698750517022,6.623466304355001,1.6454170284089988,41.0049497289
1698750517035,6.700696964355001,1.6309072584089988,41.7128302289
1698750517049,6.778566944355001,1.6066382384089988,42.4317620289
1698750517062,6.856072924355001,1.5718751484089988,43.1616143289
1698750517076,6.932408174355,1.5257995984089987,43.90166142889999
1698750517089,7.007175284355,1.4703662684089986,44.65184552889999
1698750517104,7.079835674355,1.4097119084089986,45.41260342889999
1698750517117,7.150123764355,1.3465531584089987,46.18281572889999
1698750517131,7.217633954355,1.2807642384089988,46.96148412889999
1698750517145,7.281189794355001,1.2112481284089989,47.74753742889999
1698750517159,7.340811304355001,1.138988258408999,48.54034772889999
1698750517173,7.395511644355001,1.065478688408999,49.33966222889999
1698750517188,7.445009904355001,0.9924208384089992,50.14596262889999
1698750517201,7.489614804355002,0.9206298684089992,50.95876852889999
1698750517215,7.529153814355002,0.852835468408999,51.77860732889999
1698750517229,7.563399004355002,0.790626328408999,52.60558142889999
1698750517243,7.591477564355002,0.733657348408999,53.43919592889999
1698750517257,7.612836804355002,0.679679748408999,54.27799602889999
1698750517272,7.627867544355002,0.627320268408999,55.1202724289
1698750517284,7.636838997355002,0.577414978408999,55.9645867289
1698750517298,7.640857185355002,0.536613508408999,56.8113749289
1698750517312,7.641453798055002,0.523084458408999,57.66436062889999
1698750517326,7.641220654455002,0.549341458408999,58.5259642289
1698750517340,7.642097647355002,0.607173268408999,59.3951645289
1698750517354,7.644394780355002,0.676847538408999,60.2668119289
1698750517368,7.649816627355002,0.752156478408999,61.1393360289
1698750517381,7.660139197355002,0.820587338408999,62.0069208289
1698750517395,7.675686417355002,0.869871628408999,62.8660532289
1698750517409,7.697802157355002,0.901606478408999,63.7159604289
1698750517423,7.727115397355002,0.929756868408999,64.55793332889999
1698750517437,7.764717137355002,0.9676592184089988,65.3939634289
1698750517451,7.812626187355002,1.022022668408999,66.22470212889999
1698750517465,7.870883737355003,1.089303278408999,67.04901042889999
1698750517479,7.939286947355002,1.1639896784089991,67.8639722289
1698750517492,8.016698117355002,1.2427091884089991,68.66773252889999
1698750517506,8.101871247355001,1.324264138408999,69.45981852889999
1698750517520,8.193292707355,1.406798298408999,70.2405164289
1698750517535,8.288872717355002,1.488597508408999,71.01241482889999
1698750517548,8.386760357355001,1.5669124484089991,71.77790552889999
1698750517563,8.485285757355001,1.638459318408999,72.53988952889999
1698750517576,8.583487477355002,1.700020618408999,73.3010179289
1698750517589,8.681347007355,1.750692158408999,74.0638794289
1698750517604,8.779010497355001,1.788234838408999,74.83055412889999
1698750517618,8.877062017355001,1.809992338408999,75.6033864289
1698750517632,8.975075267355,1.8146544424089992,76.3834886289
1698750517646,9.072426107355,1.8017133624089992,77.1716412289
1698750517659,9.169690067355,1.771928642408999,77.9678980289
1698750517673,9.267002217355,1.727724922408999,78.77189912889999
1698750517686,9.365060857355,1.671311872408999,79.58384912889998
1698750517701,9.464117937355,1.605603662408999,80.40276912889999
1698750517715,9.564198237355,1.5314284524089992,81.22837742889999
1698750517729,9.665632037355,1.4504146424089992,82.05977372889998
1698750517742,9.769095337355,1.3640710424089992,82.89709052889998
1698750517756,9.874977737355,1.2747073224089993,83.74038402889998
1698750517770,9.984478837355,1.1847020924089993,84.58967232889998
1698750517784,10.099567037355,1.0937587824089992,85.44443492889998
1698750517799,10.221728637355,1.001558312408999,86.30436722889998
1698750517812,10.352517737355,0.909912792408999,87.17049782889998
1698750517826,10.492463437355,0.8209483924089991,88.04417332889999
1698750517840,10.641441537355002,0.7346770324089991,88.92577952889998
1698750517854,10.799438337355,0.650631042408999,89.81503812889999
1698750517868,10.966363037355,0.5694125824089991,90.7117090289
1698750517881,11.141628737355,0.492556732408999,91.61533852889998
1698750517895,11.324821337355,0.421186402408999,92.52531402889998
1698750517909,11.514598537355,0.3553481424089991,93.44063392889998
1698750517923,11.709883837355,0.296043822408999,94.3601693289
1698750517937,11.909208537355,0.243669062408999,95.28143902889998
1698750517952,12.109956037355,0.2070899324089991,96.20478282889998
1698750517965,12.311757737355002,0.2162508174089991,97.13720382889998
1698750517979,12.515913537355004,0.2836195674089991,98.08108232889998
1698750517992,12.720703937355005,0.3827463574089991,99.03401292889998
1698750518006,12.922484837355002,0.491595157408999,99.9935936289
1698750518021,13.119094237355002,0.601189157408999,100.9586473289
1698750518035,13.309979837355002,0.6958871574089991,101.9228478289
1698750518048,13.492688537355,0.7659428974089991,102.8827063289
1698750518062,13.665265737355,0.8108203274089991,103.8348451289
1698750518076,13.827480337355,0.8382829074089991,104.77904102889998
1698750518090,13.978737437355,0.8615904474089991,105.71699472889998
1698750518104,14.119209437355002,0.8975074374089992,106.65140592889998
1698750518117,14.251358637355002,0.9549515774089992,107.58501712889998
1698750518131,14.376577237355002,1.0308889274089992,108.51810902889996
1698750518145,14.494096337355003,1.1185631874089992,109.44777372889996
1698750518159,14.604561237355004,1.2130475574089992,110.37292232889996
1698750518173,14.709354937355004,1.3123560574089992,111.29311922889995
1698750518187,14.809961237355004,1.4134898574089991,112.20848972889996
1698750518201,14.907796837355004,1.5112287374089992,113.11916932889996
1698750518214,15.004180797355003,1.6024461074089993,114.02653782889996
1698750518228,15.099544387355005,1.6854661774089994,114.93161322889996
1698750518243,15.194861127355004,1.7563588574089994,115.83638812889996
1698750518256,15.290902357355003,1.813738717409,116.74209642889996
1698750518272,15.388035127355003,1.854255437409,117.64976522889997
1698750518284,15.486878077355003,1.8765557174089995,118.56080742889996
1698750518299,15.586900277355005,1.878785032409,119.47625502889996
1698750518312,15.688325977355005,1.8600917424089995,120.39718552889995
1698750518326,15.790436877355004,1.8222131824089995,121.32396082889996
1698750518340,15.892376277355003,1.7664705424089993,122.25611932889996
1698750518354,15.993898677355004,1.6940755024089993,123.19366302889996
1698750518368,16.094650877355004,1.6062919724089992,124.13647762889995
1698750518381,16.194005177355006,1.503873572408999,125.08442082889997
1698750518395,16.290864657355005,1.3896726724089994,126.03705862889996
1698750518409,16.384513477355004,1.2690109724089993,126.99468542889996
1698750518424,16.474274347355003,1.1486492724089994,127.95785142889996
1698750518437,16.559954977355,1.0302779724089994,128.92666812889996
1698750518451,16.641355697355003,0.9128606724089994,129.90044412889995
1698750518465,16.718042317355003,0.7987620724089994,130.87940762889994
1698750518479,16.790044127355003,0.6938798724089994,131.86422632889995
1698750518493,16.857355267355004,0.6026855724089994,132.85521242889993
1698750518507,16.920566407355004,0.5244219624089994,133.85218162889993
1698750518521,16.979605047355005,0.4576451324089994,134.85428262889994
1698750518535,17.034266257355004,0.4040808624089994,135.86077962889993
1698750518548,17.084451817355003,0.3600889524089994,136.86799662889993
1698750518562,17.130643357355,0.3286143624089994,137.87346862889993
1698750518576,17.174287307355,0.3285174382689994,138.87995262889993
1698750518590,17.218307187355002,0.3794341082689994,139.88927362889993
1698750518603,17.265112147355,0.4711966682689994,140.89937162889993
1698750518618,17.314279897355,0.5731063682689994,141.90536762889994
1698750518632,17.366911837355,0.6682941182689994,142.90690062889993
1698750518646,17.425297867355003,0.7473092082689994,143.90249382889994
1698750518660,17.491266827355002,0.8081273982689994,144.89280172889994
1698750518673,17.565856107355003,0.8620995082689994,145.87797142889994
1698750518688,17.649780167355004,0.9201890082689994,146.85729622889994
1698750518702,17.743848607355005,0.9890820582689994,147.83027842889993
1698750518715,17.847496207355004,1.0692601682689995,148.79658112889993
1698750518729,17.960804607355005,1.1580774282689994,149.75370102889994
1698750518743,18.082696807355006,1.2521282782689993,150.69891912889997
1698750518756,18.21113240735501,1.3499021382689993,151.62972912889995
1698750518770,18.344404207355005,1.4530382382689992,152.54652972889994
1698750518784,18.480792207355005,1.5618351382689992,153.45064002889995
1698750518798,18.618772207355004,1.669734738268999,154.34435152889995
1698750518812,18.75763560735501,1.769351968268999,155.23027612889996
1698750518826,18.896464307355007,1.854954828269,156.11190352889997
1698750518840,19.03539120735501,1.923791238269,156.99293942889997
1698750518853,19.17451170735501,1.975161958269,157.87659862889998
1698750518868,19.31432420735501,2.0084306582689995,158.7651668289
1698750518882,19.45533790735501,2.0199958182689994,159.66012742889998
1698750518897,19.59839330735501,2.007360058268999,160.5627541289
1698750518909,19.74413910735501,1.9715701082689991,161.4734966289
1698750518923,19.89308340735501,1.9154505882689992,162.3927125289
1698750518938,20.04633150735501,1.8421646982689992,163.3210457289
1698750518951,20.20427200735501,1.7554169882689992,164.2575159289
1698750518965,20.36694790735501,1.6584572782689992,165.20049772890002
1698750518978,20.53531230735501,1.5524957782689992,166.14946812890005
1698750518992,20.70985400735501,1.4391732782689992,167.1032291289
1698750519006,20.89047040735501,1.3208251782689993,168.06131792890002
1698750519020,21.07808350735501,1.2008267782689992,169.0243678289
1698750519034,21.27296320735501,1.0822724782689992,169.99244412890002
1698750519049,21.474605907355013,0.9664497782689992,170.96491152890002
1698750519063,21.68370920735501,0.8539657782689991,171.94126422890002
1698750519076,21.90034320735501,0.7455429782689991,172.9203446289
1698750519090,22.12509430735501,0.6412350782689991,173.90087802890002
1698750519104,22.35784510735501,0.5412034782689991,174.88111232890003
1698750519117,22.59833820735501,0.445231878268999,175.85927512890004
1698750519131,22.84654300735501,0.3556121082689991,176.83424072890003
1698750519145,23.10237080735501,0.2761138882689991,177.80448132890004
1698750519159,23.365391507355007,0.209395718268999,178.76801462890003
1698750519173,23.634137907355008,0.169686788268999,179.72999842890005
1698750519187,23.908220707355007,0.186770468268999,180.69672942890008
1698750519202,24.18633170735501,0.250633788268999,181.6683360289001
1698750519215,24.46417130735501,0.3336555882689991,182.6419935289001
1698750519229,24.737540307355005,0.4217609282689991,183.61439042890007
1698750519243,25.005413007355006,0.5147748582689992,184.58466082890007
1698750519256,25.266874707355008,0.6031530182689991,185.54781942890008
1698750519271,25.51756850735501,0.6759676282689991,186.4990227289001
1698750519285,25.754832807355008,0.7317151382689991,187.4362459289001
1698750519299,25.976512507355007,0.7759454682689991,188.3586732289001
1698750519312,26.181315007355007,0.8261921782689992,189.2693205289001
1698750519326,26.37091380735501,0.8985985482689991,190.1725397289001
1698750519339,26.54629500735501,0.9971239282689992,191.0716329289001
1698750519354,26.708038907355007,1.1150977282689991,191.9656961289001
1698750519368,26.856383907355006,1.243043528268999,192.8533223289001
1698750519381,26.992960407355007,1.377480628268999,193.7353483289001
1698750519395,27.118932107355008,1.5145168282689991,194.6112740289001
1698750519409,27.234853407355008,1.6477493282689992,195.48160182890007
1698750519423,27.341793607355008,1.7713911282689991,196.34706492890007
1698750519438,27.441941807355008,1.882863328268999,197.2107559289001
1698750519451,27.53720775735501,1.981183138268999,198.0748413289001
1698750519466,27.62865716735501,2.064020768268999,198.9413995289001
1698750519479,27.71717739735501,2.127351888268999,199.81174402890008
1698750519493,27.803322317355008,2.1698081382689987,200.68676052890007
1698750519507,27.88748356735501,2.190942918268999,201.5673900289001
1698750519520,27.969932167355008,2.1910772873689988,202.45487512890008
1698750519534,28.05084403735501,2.170366147368999,203.35003492890004
1698750519547,28.13024785735501,2.128970447368999,204.25313192890005
1698750519562,28.20811434735501,2.067047107368999,205.16420682890003
1698750519576,28.28414611735501,1.984831607368999,206.08396522890004
1698750519590,28.35740594735501,1.886994267368999,207.01228652890003
1698750519603,28.42742483735501,1.779052967368999,207.9509390289
1698750519617,28.493766477355013,1.664924367368999,208.89990902890003
1698750519632,28.556574807355013,1.543506667368999,209.8592401289
1698750519646,28.61563570735501,1.415623267368999,210.8282508289
1698750519659,28.66987405735501,1.285149267368999,211.8063646289
1698750519674,28.71887679735501,1.154355467368999,212.7928757289
1698750519687,28.762436827355007,1.025780667368999,213.78861622890005
1698750519701,28.800960467355008,0.9042278673689992,214.79461622890005
1698750519715,28.834996327355007,0.794245067368999,215.8114122289
1698750519728,28.86536396735501,0.6956387373689991,216.83829422890005
1698750519742,28.892207817355008,0.607944277368999,217.87461922890003
1698750519756,28.915765717355008,0.529820437368999,218.91783622890003
1698750519770,28.93594084735501,0.458999337368999,219.96465422890003
1698750519784,28.95253126735501,0.395853287368999,221.0109242289
1698750519799,28.96643637735501,0.351987167368999,222.05647022890005
1698750519812,28.979160927355007,0.3468500033689989,223.10320622890004
1698750519826,28.99278717735501,0.389387993368999,224.15240022890004
1698750519840,29.00881164735501,0.467211003368999,225.20410722890003
1698750519853,29.02744086735501,0.568136603368999,226.25731622890004
1698750519868,29.05038185735501,0.672499903368999,227.30696422890003
1698750519881,29.07834117735501,0.756648353368999,228.34974022890003
1698750519895,29.11210774735501,0.8161144233689991,229.38359222890003
1698750519910,29.15214311735501,0.8595066933689991,230.40682622890003
1698750519923,29.198185227355008,0.897653453368999,231.41901522890004
1698750519937,29.250229197355008,0.938679803368999,232.42193522890005
1698750519951,29.30903778735501,0.987058263368999,233.41620842890003
1698750519965,29.37677384735501,1.044354063368999,234.40062992890003
1698750519979,29.45291752735501,1.110956513368999,235.37441552890004
1698750519993,29.537610987355013,1.184500693368999,236.33588232890008
1698750520006,29.63008672735501,1.263677883368999,237.2838354289001
1698750520020,29.72855645735501,1.344919293368999,238.21977892890007
1698750520035,29.831949457355016,1.423919263368999,239.14544622890008
1698750520048,29.939718357355016,1.497086143368999,240.06361782890005
1698750520063,30.051272857355016,1.564179033368999,240.97768862890004
1698750520076,30.166280357355017,1.6208713133689991,241.88985962890004
1698750520090,30.28428975735501,1.6634465933689992,242.80181212890005
1698750520103,30.40500795735501,1.6872779533689992,243.7151812289001
1698750520117,30.528491457355013,1.6922667083689993,244.6315072289001
1698750520131,30.65475685735501,1.6775841983689992,245.5517402289001
1698750520147,30.784399657355014,1.644895108368999,246.47593262890007
1698750520159,30.91758015735501,1.5952828083689992,247.40372612890008
1698750520173,31.05446425735501,1.5317896783689993,248.33493792890008
1698750520187,31.19497955735501,1.4577312983689992,249.2694546289001
1698750520201,31.34058515735501,1.3750253283689993,250.2066951289001
1698750520215,31.49186275735501,1.2847888183689993,251.14633602890007
1698750520228,31.65027455735501,1.1869698983689994,252.08874112890007
1698750520242,31.816401357355016,1.0823469983689993,253.03461852890007
1698750520256,31.99062295735501,0.9714145983689992,253.9842876289001
1698750520271,32.174224957355015,0.8543757983689992,254.9385175289001
1698750520284,32.367295657355015,0.7338659983689992,255.89785952890009
1698750520300,32.569678757355014,0.6148204983689992,256.86323442890006
1698750520313,32.78210825735501,0.5025360983689993,257.83564322890004
1698750520326,33.00503345735501,0.3988851983689992,258.81502712890006
1698750520340,33.23843975735501,0.3026910983689992,259.80095072890003
1698750520353,33.48212905735501,0.2170530683689992,260.7930499289
1698750520369,33.73603855735501,0.1456407483689992,261.79039402890004
1698750520381,33.99858745735501,0.0878024483689992,262.79103602890007
1698750520395,34.267761357355006,0.0490946783689992,263.79457202890006
1698750520409,34.542610657355006,0.0522760703689992,264.8057300289001
1698750520423,34.82335125735501,0.1100991103689992,265.8264490289001
1698750520437,35.10728345735501,0.2047945903689992,266.8551930289001
1698750520451,35.39076365735501,0.3194198903689992,267.8884140289001
1698750520466,35.67074495735501,0.4420901903689992,268.9233790289001
1698750520478,35.94501285735501,0.5639627903689992,269.95885302890014
1698750520493,36.21085935735501,0.6728583903689992,270.99057502890014
1698750520506,36.46378405735501,0.7538023103689993,272.0131190289001
1698750520521,36.70115095735501,0.8029285603689993,273.0243550289001
1698750520534,36.92080865735501,0.8288904203689993,274.0245630289001
1698750520548,37.12425895735501,0.8531442403689993,275.0181251289001
1698750520561,37.31187555735501,0.8967711903689992,276.0084331289001
1698750520576,37.484889157355006,0.9683619103689992,276.99865422890014
1698750520590,37.64410285735501,1.0572498203689993,277.98724152890014
1698750520604,37.79122875735501,1.1506972503689994,278.9709638289001
1698750520618,37.92693395735501,1.2465695003689994,279.94970092890014
1698750520633,38.053799157355,1.3452182103689994,280.92325232890016
1698750520645,38.173886857355,1.4431198103689993,281.8919402289002
1698750520659,38.287671957355,1.535899340368999,282.8556473289002
1698750520673,38.395836757355,1.6186590603689994,283.8153857289002
1698750520688,38.499375357355,1.6894758003689994,284.7726538289002
1698750520702,38.599056707355,1.7458621503689993,285.72931972890024
1698750520716,38.696033467354994,1.7862006803689994,286.6875025289002
1698750520729,38.790819667355,1.8077693203689995,287.6486590289002
1698750520743,38.884011917355,1.8080201155689992,288.6139490289002
1698750520756,38.97594310735499,1.7849196355689991,289.5847780289002
1698750520770,39.06655319735499,1.7387658355689992,290.5624819289002
1698750520784,39.15568046735499,1.6708637055689992,291.5484052289002
1698750520799,39.24307967735499,1.5847582055689993,292.5430214289002
1698750520812,39.32852415735499,1.4821379055689992,293.5462414289002
1698750520826,39.41111008735499,1.363318005568999,294.5568224289002
1698750520841,39.490229917355,1.228514905568999,295.5738054289002
1698750520854,39.56503740735499,1.083467805568999,296.5971584289002
1698750520868,39.634892737355,0.935073905568999,297.62705842890017
1698750520881,39.69956338735499,0.7863896055689991,298.6630294289002
1698750520895,39.759411127354994,0.6367921055689991,299.7049484289002
1698750520909,39.814036907355,0.4889550055689991,300.7534984289002
1698750520924,39.863872527355,0.3501606055689991,301.8104334289002
1698750520938,39.908887507355,0.2268928055689991,302.8762574289002
1698750520951,39.949235207355,0.1202316055689991,303.9507074289002
1698750520965,39.985086027355,0.0283972955689991,305.0318684289002
1698750520978,40.016204357354994,-0.0486660944310008,306.11793842890023
1698750520992,40.04248237735499,-0.1087797044310008,307.20689242890023
1698750521007,40.06466930735499,-0.1464572744310009,308.29721442890025
1698750521018,40.08420895735499,-0.1511736444310009,309.38972142890026
1698750521033,40.10311554735499,-0.1021424944310009,310.4879454289003
1698750521047,40.12474201735499,-0.0008939944310008,311.5911024289003
1698750521061,40.15091977735499,0.1264661055689991,312.69368842890026
1698750521075,40.183873577354994,0.2643225055689991,313.79293042890026
1698750521090,40.22528217735499,0.3896491055689991,314.8804134289003
1698750521103,40.27680910735499,0.4822630455689991,315.9499174289003
1698750521117,40.33887542735499,0.5443185155689991,317.00279242890025
1698750521131,40.413060117355,0.5920431355689991,318.0400664289003
1698750521145,40.499930937355,0.6457472455689991,319.0630094289003
1698750521158,40.599995037354994,0.7197732655689991,320.0734074289003
1698750521172,40.71186393735499,0.8120146955689991,321.0727842289003
1698750521187,40.83301163735499,0.9142666955689992,322.05780282890026
1698750521201,40.96115853735499,1.021493995568999,323.02639602890025
1698750521214,41.09423403735499,1.128809595568999,323.97906042890025
1698750521228,41.23036483735498,1.232947095568999,324.91688982890025
1698750521242,41.368003337354985,1.330382035568999,325.84159302890026
1698750521256,41.50594843735499,1.419155175568999,326.7571881289003
1698750521270,41.64405833735499,1.4972195455689992,327.6665691289003
1698750521284,41.78258003735499,1.5641631155689992,328.5735723289003
1698750521298,41.92177903735499,1.6178519455689993,329.4809383289003
1698750521312,42.06184123735499,1.6558244255689991,330.3910712289004
1698750521325,42.20335643735499,1.6765471455689993,331.30637682890034
1698750521339,42.34671823735499,1.6780674885689992,332.2284928289004
1698750521353,42.49180293735499,1.6581421985689992,333.1579931289004
1698750521368,42.639891737354986,1.6143260385689993,334.09572732890035
1698750521381,42.790861037354986,1.5504485785689992,335.04263272890034
1698750521395,42.94570263735498,1.4728535785689991,335.9985174289004
1698750521409,43.10527653735498,1.3843308085689991,336.96388532890035
1698750521422,43.26936823735498,1.288000628568999,337.9374633289003
1698750521436,43.43913993735498,1.1854015285689992,338.9193716289003
1698750521450,43.61457453735498,1.079284828568999,339.9091293289003
1698750521465,43.79592873735498,0.9716197285689993,340.9069894289003
1698750521479,43.98385123735498,0.8632563285689991,341.9121854289004
1698750521492,44.178236637354985,0.7545296285689992,342.9232934289003
1698750521506,44.37998373735498,0.6485317285689992,343.9403734289004
1698750521520,44.59098073735498,0.5515226785689992,344.9635264289003
1698750521534,44.81132243735498,0.4662716785689992,345.9914034289003
1698750521549,45.04102483735498,0.3916238085689992,347.0223864289003
1698750521561,45.27982433735498,0.3272894885689992,348.0552524289003
1698750521575,45.52808603735498,0.2770615285689992,349.0897454289003
1698750521589,45.78477873735498,0.2510479085689991,350.1270064289003
1698750521603,46.04964763735499,0.2685966485689992,351.1698364289003
1698750521617,46.32253813735499,0.3407372785689991,352.2198094289003
1698750521633,46.60040683735499,0.4475156785689991,353.2738994289003
1698750521645,46.87774593735499,0.5689037785689992,354.3266874289003
1698750521659,47.15083233735498,0.6956452785689993,355.3778944289003
1698750521673,47.41656273735499,0.8199300785689992,356.42441842890025
1698750521687,47.67074733735499,0.9265539785689992,357.4618944289003
1698750521701,47.910020337354986,1.0080522185689993,358.4886784289003
1698750521715,48.13180093735499,1.0678173385689993,359.5050954289003
1698750521728,48.33557473735499,1.1204777685689993,360.5139704289003
1698750521742,48.52222153735499,1.1831266785689991,361.51834742890026
1698750521756,48.69414213735499,1.2642272385689994,362.5206714289002
1698750521770,48.853027737354985,1.3582228085689994,363.5210214289002
1698750521785,48.999609637354986,1.4560746185689994,364.51826622890025
1698750521798,49.13458943735499,1.5571966185689994,365.51342122890026
1698750521811,49.25970973735499,1.6605990185689994,366.50692182890026
1698750521825,49.37748343735499,1.7616656185689994,367.4988844289003
1698750521839,49.48866373735499,1.853299178569,368.4892097289003
1698750521853,49.59450493735499,1.9306630085689995,369.4784123289003
1698750521868,49.69544513735499,1.9911328285689995,370.4672405289003
1698750521881,49.79234345735499,2.033052638568999,371.4571614289003
1698750521895,49.88592477735499,2.057437388568999,372.4501812289003
1698750521909,49.97715659735498,2.064401538568999,373.4484611289003
1698750521922,50.06669427735498,2.0532664285689988,374.4538291289003
1698750521937,50.154833837354985,2.022957578568999,375.46883412890026
1698750521951,50.24177236735498,1.9736427785689987,376.4940171289003
1698750521965,50.32714996735498,1.905318958568999,377.52984712890026
1698750521978,50.40955234735498,1.8166807285689988,378.57589312890025
1698750521992,50.48830134735498,1.7096308285689987,379.6300691289002
1698750522006,50.56214390735499,1.5832741285689989,380.6915511289002
1698750522021,50.630031687354986,1.438340528568999,381.7589881289002
1698750522034,50.69080937735499,1.279899828568999,382.8320131289002
1698750522048,50.74465349735499,1.1121686285689991,383.9089851289002
1698750522062,50.79066330735499,0.9388724285689992,384.9885871289002
1698750522076,50.82898933735499,0.7652863285689991,386.06983412890025
1698750522089,50.86008460735499,0.5973315285689992,387.1529461289003
1698750522103,50.884426667354994,0.4419931285689992,388.2387911289003
1698750522117,50.90247894735499,0.3031626285689992,389.3273421289003
1698750522131,50.91496766735499,0.1813826285689992,390.4181571289003
1698750522145,50.92176927235499,0.0755616285689992,391.5091901289003
1698750522159,50.922896217355,-0.0149147914310007,392.5975971289003
1698750522173,50.918967675355,-0.0834003614310007,393.6830151289003
1698750522187,50.911928545355,-0.1132769614310007,394.7690031289003
1698750522201,50.903939556355,-0.0854756014310007,395.86062512890027
1698750522215,50.897178422355,-0.0081713914310007,396.95629212890026
1698750522228,50.892581652355,0.0879912985689992,398.04759012890025
1698750522242,50.890910755355,0.1798441385689992,399.1299771289002
1698750522256,50.894627701355,0.2546650585689992,400.2004701289002
1698750522270,50.905821871355,0.3094775185689992,401.2578631289002
1698750522284,50.926325721355,0.3538939885689992,402.3033431289002
1698750522298,50.957610471355,0.4016639285689992,403.33823012890025
1698750522311,51.001305171355,0.4652678885689992,404.3635941289003
1698750522326,51.057195851355,0.5496707285689992,405.3792371289003
1698750522340,51.122972381355,0.6495407285689992,406.38293912890026
1698750522353,51.196661901355,0.7611736285689993,407.37240542890027
1698750522368,51.275513901355,0.8836286285689993,408.34631042890027
1698750522381,51.356993781355,1.0166960285689992,409.3071241289003
1698750522395,51.439346901355,1.1547132285689992,410.2562588289003
1698750522410,51.522241201355,1.2891124285689992,411.1955385289003
1698750522423,51.605335171355,1.4132760285689991,412.1278026289002
1698750522437,51.68871256135501,1.5228651285689991,413.05639772890027
1698750522451,51.773215941355005,1.6135682185689992,413.9842282289003
1698750522466,51.85945978135501,1.6827926085689993,414.9138605289003
1698750522479,51.948674731355005,1.7287144785689992,415.84761032890026
1698750522492,52.041720381355006,1.7506585485689992,416.78657682890025
1698750522506,52.13950207135501,1.7479337655689993,417.7314734289002
1698750522520,52.24245087135501,1.7193329855689992,418.6830679289002
1698750522534,52.350525871355,1.6680271955689991,419.6414841289002
1698750522548,52.46465527135501,1.5975602555689992,420.6080423289002
1698750522563,52.58504257135501,1.5131692955689993,421.5825768289002
1698750522576,52.713056871355,1.4172356455689992,422.5650579289002
1698750522588,52.848244271355,1.3130844455689992,423.5532840289002
1698750522603,52.991941571355,1.2013357455689992,424.54638272890026
1698750522617,53.144999271355,1.0847759455689991,425.54375052890026
1698750522631,53.307431571355,0.9671390455689992,426.5453215289003
1698750522645,53.479415471355,0.8507108455689991,427.5507185289003
1698750522658,53.660845471355,0.7360374455689991,428.5602215289003
1698750522672,53.851853071355,0.6238663455689991,429.5737545289003
1698750522687,54.05250807135499,0.5167358455689991,430.59123652890025
1698750522701,54.26225617135499,0.4158745455689991,431.6116665289002
1698750522714,54.479444971354994,0.3207822155689991,432.6329675289002
1698750522728,54.70326987135499,0.2320808655689991,433.6540235289002
1698750522741,54.93142437135499,0.1511639555689991,434.6727885289002
1698750522755,55.162080971355,0.078667575568999,435.6873905289002
1698750522769,55.39361927135499,0.022702765568999,436.6988975289002
1698750522783,55.62449687135499,0.009740855568999,437.7135935289002
1698750522799,55.85595247135499,0.048935915568999,438.7345385289002
1698750522811,56.08761377135499,0.116953065568999,439.7587815289002
1698750522825,56.318764771354985,0.200702325568999,440.7844485289002
1698750522840,56.54892647135498,0.3004287055689991,441.8117575289002
1698750522852,56.774961471354985,0.3962465355689991,442.8329385289002
1698750522867,56.99367897135498,0.468061905568999,443.84123652890025
1698750522881,57.20303317135498,0.5095221355689991,444.83449742890025
1698750522894,57.39998347135498,0.532751935568999,445.8126995289002
1698750522907,57.58088757135498,0.560127875568999,446.7781446289002
1698750522921,57.74165877135498,0.615765355568999,447.73583872890026
1698750522936,57.882340771354976,0.7089113055689991,448.69081472890025
1698750522950,58.00461207135498,0.8342031055689991,449.64271722890027
1698750522964,58.11329267135498,0.9798421055689992,450.5899107289003
1698750522978,58.21220670135498,1.139012405568999,451.5324475289003
1698750522991,58.30310843135498,1.303277905568999,452.4700003289003
1698750523005,58.38864396135498,1.4634593055689988,453.4034784289003
1698750523019,58.47121371135498,1.6116678055689988,454.3345273289003
1698750523034,58.55273910135498,1.7426519055689988,455.2655266289003
1698750523047,58.63410501135498,1.8530537055689988,456.1983320289003
1698750523061,58.71480717135498,1.940037835568999,457.13444772890034
1698750523075,58.79505836135498,2.0020019155689988,458.0754848289004
1698750523089,58.87527119135498,2.036986495568999,459.0229770289004
1698750523103,58.95554735135498,2.045605240568999,459.9777278289004
1698750523117,59.03522714135498,2.028068890568999,460.94036182890034
1698750523131,59.11378636135498,1.9883178105689991,461.9104384289004
1698750523145,59.19036513135498,1.9286579905689991,462.8866050289004
1698750523158,59.26520261135498,1.850895150568999,463.8684222289004
1698750523172,59.33769360135498,1.757133710568999,464.8561340289004
1698750523187,59.40757397135498,1.651273510568999,465.8486990289004
1698750523201,59.47445890135498,1.5348646105689991,466.8454808289004
1698750523214,59.53818285135498,1.4096273105689991,467.8460308289004
1698750523228,59.59869194135498,1.2777762105689991,468.8498538289004
1698750523241,59.655876251354975,1.1434221105689992,469.8575508289004
1698750523255,59.70892784135498,1.0112208105689993,470.8700938289004
1698750523271,59.75748935135498,0.8847921105689993,471.8871848289004
1698750523283,59.80194679135498,0.7666206105689993,472.9089068289004
1698750523297,59.84218031135498,0.6582128105689993,473.9345538289004
1698750523311,59.87812900135498,0.5614355005689993,474.9633258289004
1698750523325,59.90970525135498,0.4769970305689993,475.9937778289004
1698750523339,59.93650585135498,0.4072660905689992,477.0246598289005
1698750523353,59.95898342135498,0.3594207005689993,478.05524882890046
1698750523367,59.97802055135498,0.3474912405689992,479.0879228289005
1698750523381,59.99468368135498,0.3899707405689993,480.1264428289005
1698750523394,60.01168760135498,0.4750331105689993,481.1694988289004
1698750523408,60.03081518135498,0.5796856105689993,482.2125468289004
1698750523423,60.05453842135498,0.6888343105689992,483.2531948289004
1698750523437,60.08534049135498,0.7794283005689993,484.2844988289004
1698750523450,60.12431784135499,0.8424931805689992,485.3068288289004
1698750523464,60.17375465135499,0.8830765205689992,486.3213558289004
1698750523478,60.23453026135499,0.9211578205689992,487.3294728289004
1698750523492,60.30747246135499,0.9731426605689992,488.3333848289004
1698750523506,60.39253899135499,1.0442767205689991,489.3345688289005
1698750523520,60.48900720135499,1.125883720568999,490.33197282890046
1698750523534,60.59507300135499,1.2072652905689991,491.3229897289005
1698750523548,60.70838820135499,1.2853812605689992,492.3064007289004
1698750523561,60.82730970135499,1.364176340568999,493.2820403289005
1698750523575,60.950752201354994,1.442952630568999,494.2501919289005
1698750523589,61.077596301354994,1.517031490568999,495.21120332890047
1698750523603,61.207557801354994,1.582314250568999,496.1666587289005
1698750523617,61.33893950135499,1.6361464405689992,497.11848502890047
1698750523631,61.47143250135499,1.6746004405689991,498.0683896289005
1698750523645,61.60472290135499,1.6958077905689992,499.0186894289005
1698750523659,61.73932110135499,1.7000224165689992,499.9718958289005
1698750523673,61.87538070135499,1.6887032065689993,500.9298907289005
1698750523686,62.01415230135499,1.6607277465689994,501.8948630289005
1698750523701,62.15618070135499,1.615137566568999,502.8675141289005
1698750523714,62.30259550135499,1.5507220865689992,503.8481050289005
1698750523728,62.453971701355,1.4675208865689993,504.83585742890045
1698750523742,62.61174160135499,1.3681107865689992,505.8305501289004
1698750523756,62.776583201355,1.2575519865689992,506.8315441289004
1698750523770,62.949309301354994,1.1382387865689994,507.8385891289004
1698750523784,63.13102200135499,1.010195586568999,508.8512791289005
1698750523798,63.321532001355,0.8751877865689993,509.8686241289004
1698750523812,63.521338601355,0.7349621865689993,510.8897411289004
1698750523825,63.731806201355,0.5943189865689993,511.9150301289004
1698750523839,63.953532901355,0.4578548865689993,512.9453871289004
1698750523853,64.186935701355,0.3298364865689993,513.9819451289004
1698750523867,64.431996301355,0.2126593865689993,515.0245981289004
1698750523881,64.688735301355,0.1053003865689993,516.0718181289004
1698750523895,64.956635501355,0.0059493565689993,517.1217371289005
1698750523908,65.23513930135499,-0.0831152834310006,518.1731881289005
1698750523922,65.52518420135499,-0.1567108034310007,519.2245011289006
1698750523936,65.82780080135498,-0.2001113034310007,520.2766041289005
1698750523950,66.14239370135498,-0.1896193334310007,521.3333931289005
1698750523965,66.46477630135497,-0.1255868334310007,522.3960551289006
1698750523978,66.78836020135498,-0.0252338334310006,523.4640191289005
1698750523992,67.10740990135497,0.1005981665689993,524.5351891289006
1698750524006,67.41931710135496,0.2302027665689993,525.6052011289006
1698750524020,67.71983520135497,0.3403048665689993,526.6669821289006
1698750524034,68.00521840135497,0.4221751665689993,527.7180831289006
1698750524048,68.27266980135497,0.4841420265689993,528.7558601289006
1698750524061,68.52334980135497,0.5458116665689993,529.7826331289007
1698750524075,68.75737070135497,0.6243464665689993,530.8016441289006
1698750524089,68.97729990135497,0.7241657865689993,531.8154591289007
1698750524103,69.18296260135497,0.8371602865689993,532.8235381289006
1698750524117,69.37535080135497,0.9523614865689992,533.8243651289006
1698750524131,69.55674630135496,1.0693673865689992,534.8200607289006
1698750524145,69.73020300135497,1.1887083865689991,535.8112750289006
1698750524158,69.89773790135497,1.303631786568999,536.7975365289005
1698750524172,70.06089570135497,1.406375986568999,537.7790146289005
1698750524186,70.22075670135497,1.491224476568999,538.7568096289006
1698750524202,70.37805640135497,1.555381056568999,539.7324774289006
1698750524214,70.53358740135496,1.599876626568999,540.7078936289006
1698750524228,70.68815460135497,1.6251764765689989,541.6856464289006
1698750524242,70.84242020135497,1.631064073568999,542.6680543289006
1698750524256,70.99753640135496,1.617276753568999,543.6570131289005
1698750524270,71.15363440135496,1.582962723568999,544.6540888289005
1698750524284,71.31115720135496,1.5279070235689989,545.6597628289005
1698750524298,71.47030630135495,1.4519131235689988,546.6747868289006
1698750524311,71.63096070135495,1.3546375835689988,547.6994288289005
1698750524325,71.79241230135496,1.2392630835689988,548.7326658289005
1698750524339,71.95472170135496,1.1083390835689988,549.7743128289005
1698750524353,72.11737410135495,0.9634879835689988,550.8230638289006
1698750524368,72.27941860135495,0.8074083835689988,551.8790808289006
1698750524381,72.43978120135495,0.6465757835689988,552.9419358289006
1698750524395,72.59734380135495,0.4850777835689988,554.0123208289006
1698750524409,72.75211690135495,0.3265738835689987,555.0915438289005
1698750524423,72.90363990135495,0.1764358835689987,556.1796648289005
1698750524438,73.05165340135495,0.0386549835689987,557.2761588289005
1698750524451,73.19564600135496,-0.0840682164310012,558.3804438289005
1698750524466,73.33585510135497,-0.1896949164310012,559.4916088289006
1698750524478,73.47254090135496,-0.2749950764310013,560.6092438289005
1698750524492,73.60616630135496,-0.3408678064310013,561.7310808289005
1698750524506,73.73690160135496,-0.3874009664310013,562.8548118289006
1698750524520,73.86514220135496,-0.4046527364310013,563.9806808289005
1698750524534,73.99228620135496,-0.3715877064310013,565.1115998289005
1698750524548,74.12007830135495,-0.2826855164310013,566.2480098289004
1698750524561,74.24932210135495,-0.1603505164310013,567.3857588289004
1698750524575,74.38098410135495,-0.0374222164310013,568.5171628289004
1698750524589,74.51691500135496,0.0667051835689986,569.6420028289003
1698750524603,74.65993970135496,0.1404531135689987,570.7578098289003
1698750524616,74.81192910135496,0.1888152635689987,571.8669218289003
1698750524631,74.97420540135496,0.2229675035689987,572.9703988289003
1698750524645,75.14781440135496,0.2542896135689987,574.0685198289003
1698750524658,75.33306800135496,0.2904859335689987,575.1615218289003
1698750524674,75.52806060135497,0.3360353735689987,576.2496778289003
1698750524687,75.73071510135496,0.3907913135689987,577.3312768289003
1698750524700,75.93817980135496,0.4498113435689987,578.4024848289002
1698750524714,76.14845880135496,0.5104653035689987,579.4600598289003
1698750524728,76.36024030135496,0.5731504035689987,580.5024478289002
1698750524742,76.57211850135496,0.6386961835689987,581.5291108289002
1698750524756,76.78240100135497,0.7065756235689987,582.5423198289002
1698750524770,76.98947800135497,0.7764245935689987,583.5456558289002
1698750524784,77.19248760135497,0.8458809935689987,584.5417484289002
1698750524797,77.39227840135497,0.9089879435689988,585.5337381289002
1698750524811,77.58985880135498,0.9575827435689988,586.5239292289001
1698750524827,77.78618580135497,0.9868586935689988,587.5147477289001
1698750524839,77.98137810135498,0.9935407355689988,588.5083426289001
1698750524853,78.17574750135498,0.9762929055689988,589.5065623289001
1698750524867,78.37077740135497,0.9357389755689988,590.5103983289001
1698750524881,78.56760620135498,0.8733459855689989,591.5206003289002
1698750524895,78.76678780135498,0.7935753855689989,592.5370623289002
1698750524909,78.96874470135498,0.7008001755689989,593.5605763289002
1698750524923,79.17438360135498,0.6004834755689988,594.5917223289002
1698750524937,79.38486330135497,0.4963898755689988,595.6297373289002
1698750524950,79.60199840135496,0.3893330755689988,596.6739473289002
1698750524964,79.82694440135496,0.2796224755689988,597.7238743289003
1698750524978,80.06021380135496,0.1674991755689988,598.7794563289002
1698750524992,80.30146410135497,0.0539415755689988,599.8409343289002
1698750525006,80.54980700135496,-0.0567286244310011,600.9086503289002
1698750525019,80.80465750135497,-0.1604272244310011,601.9818853289001
1698750525035,81.06553140135497,-0.2565527544310012,603.0591863289002
1698750525048,81.33143780135498,-0.3446914444310012,604.1392453289002
1698750525063,81.60110580135498,-0.4221428544310012,605.2210273289002
1698750525076,81.87331480135498,-0.4848215344310012,606.3034973289001
1698750525090,82.14652150135498,-0.5215136844310012,607.3877013289001
1698750525103,82.42099510135498,-0.5114406644310012,608.4772793289001
1698750525117,82.69748940135497,-0.4465393844310012,609.5736063289
1698750525131,82.97344350135498,-0.3446256844310012,610.6718793289
1698750525145,83.24497430135497,-0.2256372844310012,611.7682193289
1698750525158,83.51092610135497,-0.0991524844310012,612.8603903289
1698750525173,83.76866310135497,0.0197930155689987,613.9425883289
1698750525187,84.01295240135498,0.1194822055689987,615.0116643289
1698750525201,84.24016280135498,0.2037495055689988,616.0678393289
1698750525215,84.44832670135499,0.2871725955689987,617.1129773289
1698750525228,84.63596240135499,0.3862737255689987,618.1507423289
1698750525242,84.80314820135499,0.5082801255689987,619.1837353289001
1698750525256,84.95199280135499,0.6456356255689987,620.2109343289001
1698750525270,85.08579600135499,0.7897167255689986,621.2324583289001
1698750525284,85.207828501355,0.9398958255689986,622.2500793289
1698750525299,85.321350501355,1.0929505255689986,623.2643963289
1698750525312,85.428085601355,1.2397733255689989,624.2752003289
1698750525325,85.529602301355,1.3714121255689986,625.2833023289
1698750525339,85.627268741355,1.4815296255689987,626.2895843289001
1698750525353,85.722063221355,1.5689318155689986,627.2959543289
1698750525368,85.813953351355,1.6334008055689986,628.3046493289
1698750525381,85.902943981355,1.6751290355689985,629.3182123289
1698750525395,85.990075631355,1.6965823255689985,630.3384923289
1698750525409,86.075186981355,1.6971842574689984,631.3662393289
1698750525422,86.157372991355,1.6751248274689985,632.4024743289
1698750525436,86.23538838135501,1.6297842474689983,633.4471053289
1698750525451,86.30851985135502,1.5604519574689983,634.5001243288999
1698750525465,86.37684755135501,1.4707850674689984,635.5608743288999
1698750525478,86.44088934135502,1.3648005674689985,636.6293923288999
1698750525492,86.50069110135502,1.2461370674689984,637.7050423288999
1698750525506,86.55561776135502,1.1152623674689983,638.7865073288999
1698750525520,86.60532821135503,0.9732068674689984,639.8727453288999
1698750525534,86.64918179135503,0.8232238674689983,640.9632233288999
1698750525547,86.68653310135504,0.6703522674689983,642.0573063288998
1698750525561,86.71728880135504,0.5185761674689984,643.1543503288998
1698750525575,86.74184258135504,0.3710709674689983,644.2537953288997
1698750525589,86.76060755135505,0.2326240674689983,645.3557433288997
1698750525604,86.77360786135505,0.1073382674689983,646.4597963288998
1698750525617,86.78141601035504,-0.0023274325310016,647.5664513288998
1698750525631,86.78399909635505,-0.0925681025310016,648.6755083288998
1698750525645,86.78169644935505,-0.1622907725310016,649.7841903288999
1698750525659,86.77536446935505,-0.2139433825310016,650.8882093288998
1698750525673,86.76612104035506,-0.2355494125310016,651.9887603288998
1698750525688,86.75592626035505,-0.2073015625310016,653.0909683288999
1698750525700,86.74783904235505,-0.1328660025310016,654.1954473288998
1698750525714,86.74462116635506,-0.0426503825310016,655.2975013288998
1698750525728,86.74795014535506,0.0388231774689983,656.3941713288998
1698750525742,86.75981194535507,0.1014207974689983,657.4843583288998
1698750525755,86.78284240535507,0.1492412874689983,658.5688043288998
1698750525770,86.81842572535507,0.1947929974689983,659.6489853288998
1698750525784,86.86866209535506,0.2502015474689983,660.7239013288998
1698750525797,86.93451870535506,0.3194394974689983,661.7917053288999
1698750525811,87.01718298535506,0.4035779474689983,662.8490133288999
1698750525825,87.11668590535507,0.5005780374689983,663.8923433288999
1698750525839,87.23063320535508,0.6065278374689983,664.9194063288999
1698750525853,87.35498660535508,0.7190799374689983,665.9300043288998
1698750525867,87.48466870535508,0.8386409374689984,666.9279071288998
1698750525881,87.61610530535508,0.9594908374689984,667.9155912288999
1698750525895,87.74675680535508,1.0716987374689984,668.8947202288998
1698750525908,87.87499020535508,1.1679949474689983,669.8671860288998
1698750525922,88.00014330535508,1.2478323174689985,670.8346813288998
1698750525937,88.12302920535508,1.3126747874689983,671.7998702288999
1698750525950,88.24382770535509,1.3611435074689984,672.7661913288998
1698750525964,88.36310570535508,1.3910609574689985,673.7346618288998
1698750525978,88.48158100535508,1.3976947714689982,674.7060517288998
1698750525998,88.60061390535508,1.376035331468998,675.6819854288998
1698750526006,88.72128780535508,1.3271427914689982,676.6633203288998
1698750526018,88.84411230535507,1.2567307614689982,677.6503273288997
1698750526033,88.96965080535507,1.1678245914689982,678.6445914288997
1698750526046,89.09867080535507,1.0646221914689982,679.6465964288998
1698750526060,89.23187870535507,0.9501579914689982,680.6562174288998
1698750526075,89.37005880535507,0.8271653914689981,681.6714284288998
1698750526088,89.51422910535507,0.6985712914689981,682.6916574288998
1698750526102,89.66557600535506,0.568001691468998,683.7176604288998
1698750526116,89.82428050535506,0.438300091468998,684.7499764288998
1698750526130,89.99089070535506,0.3116615914689981,685.7899204288998
1698750526145,90.16548420535506,0.188256391468998,686.8381224288997
1698750526158,90.34829140535506,0.070488791468998,687.8954304288998
1698750526172,90.54064080535504,-0.0392919085310019,688.9617044288998
1698750526186,90.74427080535506,-0.1404776085310019,690.0360414288998
1698750526200,90.96126660535506,-0.2316394685310019,691.1179414288998
1698750526213,91.19120540535506,-0.3122773385310019,692.2052044288998
1698750526228,91.43198540535506,-0.3833183085310019,693.2951074288999
1698750526241,91.68052880535508,-0.4439940685310019,694.3847224288999
1698750526255,91.93456000535508,-0.4710489585310019,695.4799784288998
1698750526269,92.19406160535506,-0.4311882785310019,696.5867284288998
1698750526283,92.45742310535506,-0.3410563185310019,697.7034464288998
1698750526297,92.71994050535504,-0.2257352185310019,698.8267764288998
1698750526311,92.97658110535504,-0.1027739185310019,699.9532024288999
1698750526324,93.22560410535505,0.010351281468998,701.0785624288999
1698750526338,93.46412050535504,0.096254421468998,702.1972134288999
1698750526352,93.68954480535504,0.150789651468998,703.3088934288999
1698750526367,93.90209940535505,0.186388781468998,704.4132404288998
1698750526381,94.10168340535505,0.221706161468998,705.5113304288998
1698750526394,94.29046270535504,0.2759345814689981,706.6061254288998
1698750526408,94.47041570535504,0.356181191468998,707.6988904288997
1698750526422,94.64158550535504,0.457534691468998,708.7896174288998
1698750526436,94.80423210535504,0.575827091468998,709.8751574288998
1698750526450,94.95987460535504,0.709797491468998,710.9534554288998
1698750526464,95.11089100535504,0.8529669914689979,712.0231914288998
1698750526478,95.25804520535505,0.997459991468998,713.0839144288999
1698750526491,95.40181150535504,1.1361916914689978,714.1367064288999
1698750526506,95.54284830535504,1.2650833914689978,715.1836634288999
1698750526519,95.68207830535503,1.380585891468998,716.2273364288999
1698750526533,95.82090430535504,1.479200581468998,717.2698354288999
1698750526547,95.95926040535502,1.555927071468998,718.3123334288999
1698750526561,96.09647130535502,1.6055657214689978,719.3558894288999
1698750526575,96.23191870535504,1.6241946114689978,720.4016604288998
1698750526588,96.36503030535503,1.6126715614689977,721.4505294288998
1698750526602,96.49545050535504,1.5710087614689976,722.5036824288998
1698750526616,96.62215840535504,1.5021491214689977,723.5612664288998
1698750526630,96.74369510535504,1.4080520714689977,724.6239044288998
1698750526644,96.85924460535504,1.2905097714689977,725.6915624288998
1698750526657,96.96916520535504,1.1524805714689976,726.7640404288999
1698750526672,97.07390460535504,0.9979624714689976,727.8409304288999
1698750526686,97.17373275535502,0.8311295714689977,728.9221244288999
1698750526701,97.268018485355,0.6596346714689977,730.0079164288999
1698750526714,97.355411595355,0.4887883714689977,731.0981954288999
1698750526727,97.435153195355,0.3219124714689977,732.1938764288999
1698750526741,97.506803995355,0.1628862714689977,733.2952604289
1698750526755,97.572233805355,0.0163883714689977,734.4027424289
1698750526769,97.632113585355,-0.1147478285310023,735.5148494289
1698750526783,97.687059705355,-0.2314559285310022,736.6302514289
1698750526797,97.736326285355,-0.3307936385310023,737.7481844289
1698750526811,97.779919695355,-0.4111560085310023,738.8645504289
1698750526824,97.818857975355,-0.4680989285310023,739.9757224289
1698750526839,97.854882125355,-0.4750101165310023,741.0855404289
1698750526854,97.891612475355,-0.4127241865310023,742.1972304289
1698750526867,97.929999715355,-0.3019373865310023,743.3093274288999
1698750526880,97.969945855355,-0.1721678865310023,744.4171994289
1698750526894,98.012895825355,-0.0440029865310023,745.5179544289
1698750526908,98.061057215355,0.0666484134689976,746.6066014289
1698750526922,98.117879695355,0.1591331434689976,747.6826904289001
1698750526936,98.186156155355,0.2428543534689977,748.7449564289001
1698750526950,98.266561985355,0.3257603734689976,749.7933934289001
1698750526963,98.35865840535502,0.4142448834689977,750.8288604289002
1698750526977,98.460567605355,0.5151958834689977,751.8520324289002
1698750526991,98.569900105355,0.6300640834689977,752.8616634289002
1698750527006,98.683166105355,0.7563200834689977,753.8575346289002
1698750527019,98.797781305355,0.8882627834689977,754.8408483289003
1698750527033,98.912135405355,1.0190296834689976,755.8127719289002
1698750527047,99.025367205355,1.1389191834689976,756.7741952289002
1698750527061,99.136978905355,1.2393132834689975,757.7265881289002
1698750527075,99.246814305355,1.3160888934689976,758.6728678289002
1698750527089,99.355667905355,1.3693674234689976,759.6160292289002
1698750527102,99.464598405355,1.4033729934689976,760.5595344289002
1698750527116,99.574679505355,1.4206938734689976,761.5068314289002
1698750527130,99.686426405355,1.4181247934689976,762.4596320289003
1698750527144,99.800347605355,1.3948172334689977,763.4181004289003
1698750527158,99.917493905355,1.3506089534689976,764.3829093289003
1698750527172,100.038586905355,1.2883592934689976,765.3539934289003
1698750527186,100.164024205355,1.2099822734689976,766.3314324289003
1698750527200,100.293596105355,1.1193166334689977,767.3141133289002
1698750527214,100.427143905355,1.0184907334689974,768.3015914289002
1698750527227,100.564858305355,0.9080280334689974,769.2930642289002
1698750527242,100.708280205355,0.7894540334689975,770.2886836289002
1698750527255,100.858885305355,0.6646403334689974,771.2893486289003
1698750527269,101.017649305355,0.5363649334689974,772.2963616289003
1698750527283,101.185345705355,0.4069947334689974,773.3107846289003
1698750527297,101.361633405355,0.2791281334689974,774.3318496289003
1698750527311,101.546807805355,0.1546493334689974,775.3591296289003
1698750527325,101.741150905355,0.0350391334689974,776.3916366289003
1698750527339,101.945186205355,-0.0784821665310026,777.4284026289004
1698750527353,102.158289605355,-0.1836933665310026,778.4687666289003
1698750527367,102.380151605355,-0.2787287065310025,779.5116496289003
1698750527380,102.609311105355,-0.3640617665310026,780.5546296289003
1698750527394,102.843900405355,-0.4315338565310025,781.5968056289004
1698750527408,103.082375305355,-0.4547627465310025,782.6432386289003
1698750527422,103.32443650535498,-0.4184254265310025,783.6960126289003
1698750527436,103.566787405355,-0.3382837665310025,784.7532346289004
1698750527450,103.805294405355,-0.2368847665310025,785.8085076289004
1698750527464,104.03737080535498,-0.1271286665310025,786.8583016289004
1698750527479,104.25911580535498,-0.0297288365310025,787.8955476289004
1698750527492,104.46673760535498,0.0444736334689974,788.9177906289004
1698750527506,104.65607870535496,0.0970991634689974,789.9249786289005
1698750527520,104.82559770535497,0.1425269634689974,790.9193014289004
1698750527534,104.97452750535496,0.2016246634689974,791.9048005289004
1698750527547,105.10557060535496,0.2874241234689975,792.8859840289005
1698750527561,105.22107610535495,0.3978853234689974,793.8645803289005
1698750527575,105.32328530535496,0.5237285234689975,794.8387876289005
1698750527588,105.41580426535498,0.6596561234689975,795.8096539289005
1698750527603,105.50030615535498,0.8053221234689975,796.7781228289005
1698750527617,105.57963698535498,0.9539835234689976,797.7447262289005
1698750527630,105.65585368535498,1.0971842234689977,798.7097962289005
1698750527645,105.73048579535498,1.2273086234689974,799.6741494289005
1698750527658,105.80506360535496,1.342411223468997,800.6393457289005
1698750527672,105.88014569535495,1.438855623468997,801.6070434289005
1698750527686,105.95556971535495,1.5146034534689974,802.5783696289005
1698750527700,106.03043913535495,1.5666636734689974,803.5542147289005
1698750527714,106.10367497535496,1.5921044634689974,804.5358114289005
1698750527728,106.17509460535496,1.5907850684689977,805.5236789289005
1698750527742,106.24439823535496,1.5621539384689975,806.5185007289004
1698750527755,106.31187328535496,1.5080207684689977,807.5196797289004
1698750527769,106.37662547535494,1.4293835984689975,808.5266717289004
1698750527783,106.43664753535494,1.3277899984689976,809.5382337289004
1698750527798,106.49084469535494,1.2042574984689975,810.5532037289004
1698750527811,106.53837030535492,1.0603074984689975,811.5711637289004
1698750527825,106.57981386535494,0.9036060984689976,812.5929247289004
1698750527839,106.61537944535492,0.7417863984689975,813.6184867289004
1698750527853,106.64546986535493,0.5794879984689976,814.6478107289004
1698750527867,106.67049806535492,0.4183296984689976,815.6803287289003
1698750527881,106.69065915535492,0.2620223984689975,816.7160637289004
1698750527895,106.70587055535492,0.1146609984689975,817.7552277289004
1698750527907,106.71679104535492,-0.0222715015310024,818.7967887289004
1698750527921,106.72402877735492,-0.1487530015310024,819.8393187289005
1698750527936,106.72773946435493,-0.2612359015310024,820.8818677289005
1698750527949,106.72788385665493,-0.3552516915310024,821.9222827289005
1698750527963,106.72498954465492,-0.4285701315310024,822.9581397289005
1698750527977,106.71901450665491,-0.4722396815310024,823.9905447289005
1698750527991,106.71080962965492,-0.4689723185310024,825.0230457289006
1698750528005,106.70200486165491,-0.4146922485310024,826.0567567289006
1698750528019,106.69335136965492,-0.3176467485310024,827.0927767289006
1698750528034,106.68655259565492,-0.1884565485310023,828.1294497289006
1698750528047,106.68367038365491,-0.0624326485310023,829.1572157289006
1698750528061,106.6867954256549,0.0346534714689976,830.1700017289006
1698750528075,106.69784663565493,0.0982741014689976,831.1678321289006
1698750528089,106.71743880565492,0.1446234614689976,832.1510309289006
1698750528104,106.74586560565491,0.1926470614689976,833.1214342289006
1698750528116,106.78309252565492,0.2571273414689976,834.0814990289007
1698750528130,106.82812815565492,0.3408900314689976,835.0318751289007
1698750528145,106.8810662256549,0.4380653314689977,835.9714849289006
1698750528158,106.9405939756549,0.5455811314689977,836.8990145289006
1698750528172,107.0069137656549,0.6624608314689977,837.8150417289006
1698750528186,107.0788844956549,0.7859886314689977,838.7214723289006
1698750528200,107.1556042256549,0.9089159314689976,839.6184821289006
1698750528213,107.2357430856549,1.0217795314689977,840.5059943289006
1698750528227,107.3182309656549,1.1183421214689977,841.3852796289005
1698750528241,107.4025017156549,1.1967611614689977,842.2586551289005
1698750528255,107.48887915565491,1.2561726814689975,843.1290705289005
1698750528269,107.57759813565492,1.2976719614689978,843.9995005289005
1698750528283,107.66860602565492,1.321041231468998,844.8726159289005
1698750528297,107.76167414565492,1.324673827468998,845.7503179289005
1698750528311,107.8564244556549,1.309989247468998,846.6342617289005
1698750528325,107.95259872565492,1.277627227468998,847.5247833289005
1698750528339,108.0515633856549,1.227684187468998,848.4218415289005
1698750528352,108.1543375856549,1.1608136174689978,849.3251157289005
1698750528367,108.2610380856549,1.079997017468998,850.2331698289005
1698750528380,108.3723724856549,0.988015107468998,851.1452450289005
1698750528394,108.4893587856549,0.8859721074689979,852.0607502289005
1698750528408,108.6126064856549,0.7764929074689979,852.9795297289005
1698750528422,108.7420559856549,0.6619665074689979,853.9016078289005
1698750528436,108.8780259856549,0.5457110074689979,854.8276083289005
1698750528450,109.0198827856549,0.4301911074689979,855.7583193289005
1698750528464,109.1675621856549,0.3166557074689979,856.6948465289005
1698750528478,109.3209821856549,0.2057746074689979,857.6382200289005
1698750528492,109.4791458856549,0.0992977074689979,858.5886134289005
1698750528506,109.6421405856549,-0.0025213925310021,859.5454314289005
1698750528520,109.8099577856549,-0.1010002925310021,860.5076974289005
1698750528533,109.9828543856549,-0.1965076425310021,861.4738702289005
1698750528547,110.1597312856549,-0.2879037525310021,862.4422250289006
1698750528561,110.3386401856549,-0.3751293825310021,863.4104871289005
1698750528576,110.5177835856549,-0.4571608225310021,864.3764930289005
1698750528589,110.6946311856549,-0.5219802525310021,865.3418702289006
1698750528603,110.8670714856549,-0.5364031325310021,866.3148180289006
1698750528617,111.0333773856549,-0.4953835925310021,867.2971885289006
1698750528630,111.1908654856549,-0.4237737325310021,868.2858639289007
1698750528644,111.3368635856549,-0.3310294325310021,869.2787535289007
1698750528658,111.47069178565488,-0.2184377325310021,870.2765583289007
1698750528672,111.5915219856549,-0.1050424325310021,871.2729954289007
1698750528686,111.69663388565488,-0.0106197925310021,872.2599423289007
1698750528700,111.78310645565487,0.0553262174689978,873.2301042289007
1698750528714,111.84963584565487,0.0993455574689978,874.1821399289007
1698750528727,111.89170891565487,0.1366723974689978,875.1166418289007
1698750528741,111.90918106565488,0.1866442974689978,876.0375251289007
1698750528755,111.90260238165487,0.2600982474689978,876.9487867289007
1698750528769,111.87409679165488,0.3546387274689978,877.8517682289007
1698750528783,111.82671563165488,0.4618803274689978,878.7429896289007
1698750528797,111.76325370165488,0.5778574274689978,879.6214835289006
1698750528812,111.6854302716549,0.6991614274689978,880.4857387289006
