time,acceleration_x,acceleration_y,acceleration_z
1703231538492,-4.204776e-05,0.0007316664,-0.004622977
1703231538501,0.0050425192399999,0.0011434435,-0.010040489
1703231538513,0.01084262624,0.0013108901,-0.015470721
1703231538531,0.01773481724,0.0009240581,-0.021280288
1703231538549,0.0253976402399999,-0.0005853769,-0.0280763
1703231538568,0.0333049202399999,-0.0027421779,-0.035343912
1703231538585,0.04143306524,-0.0051839799,-0.042779742
1703231538602,0.05013311524,-0.0068506219,-0.05002293
1703231538619,0.05896199124,-0.0074890322,-0.057137215
1703231538636,0.06774595424,-0.00746475047,-0.064474632
1703231538653,0.07584316724,-0.00739969893,-0.072229782
1703231538669,0.08302489924,-0.00787334903,-0.080530673
1703231538685,0.08934825824,-0.00874404543,-0.088779609
1703231538701,0.09535794924,-0.00880421702,-0.096851063
1703231538715,0.10123269424,-0.00815829452,-0.104180573
1703231538730,0.10704881724,-0.00673746252,-0.11092495
1703231538745,0.11299653124,-0.00465413152,-0.11736792
1703231538759,0.11873607124,-0.00225941352,-0.123601012
1703231538774,0.12430742224,0.0002179564799999,-0.129613659
1703231538789,0.12964816224,0.0020912594799999,-0.135569981
1703231538803,0.13498483524,0.0033803184799999,-0.141464578
1703231538817,0.14011243424,0.0041019648799999,-0.146854981
1703231538832,0.14523119924,0.0044681235799999,-0.151577566
1703231538846,0.15057557224,0.0044277198199999,-0.155596716
1703231538860,0.15566926724,0.0035780101199999,-0.158894486
1703231538873,0.16041927824,0.0018474211199999,-0.161589306
1703231538888,0.16470114424,-0.00057124788,-0.163969799
1703231538902,0.16849336424,-0.00315301088,-0.165838325
1703231538916,0.17224638724,-0.00560373688,-0.167524316
1703231538930,0.17547880024,-0.00784962788,-0.168949823
1703231538944,0.17816416224,-0.01041823788,-0.170363149
1703231538957,0.18052827024,-0.01299230288,-0.1716876279999999
1703231538971,0.18279945524,-0.01586882588,-0.1728886359999999
1703231538986,0.18464596424,-0.01890723488,-0.1737960371999999
1703231539000,0.18625338424,-0.0220075498799999,-0.1745474441999999
1703231539014,0.18780058924,-0.02485260088,-0.1755967932
1703231539028,0.18883159924,-0.0269781088799999,-0.1768302202
1703231539043,0.18963470154,-0.02824165988,-0.1783228121999999
1703231539056,0.19022122424,-0.02917291088,-0.1798876642
1703231539070,0.19061302524,-0.02974732938,-0.1815408062
1703231539084,0.19106958064,-0.03018610028,-0.1832831512
1703231539097,0.19166848384,-0.0303107254799999,-0.1850468772
1703231539111,0.19213395884,-0.0302439700799999,-0.1869608132
1703231539125,0.19268065274,-0.0304407540799999,-0.1891671902
1703231539139,0.19313104264,-0.0303300063799999,-0.1916043672
1703231539152,0.19377756504,-0.0299375296799999,-0.1941401192
1703231539166,0.19445901374,-0.0289765008799999,-0.1965273672
1703231539180,0.19484542614,-0.0281818591799999,-0.1988732932
1703231539194,0.19512846904,-0.0275701491799999,-0.2011298782
1703231539208,0.19528967974,-0.0273688105799999,-0.2033075372
1703231539222,0.19512876534,-0.0274174373999999,-0.2052622482
1703231539236,0.19497307194,-0.0279484030999999,-0.2073239902
1703231539249,0.19463709824,-0.0288550752999999,-0.2093729042
1703231539263,0.19446418454,-0.0305522182999999,-0.2114603812
1703231539277,0.19481795434,-0.0321062283,-0.2136660812
1703231539291,0.19579810954,-0.0332496372999999,-0.2158336392
1703231539305,0.19719559854,-0.0341336514999999,-0.2179918902
1703231539319,0.19933691054,-0.0347852153999999,-0.2202232642
1703231539333,0.20194261054,-0.0355259010999999,-0.2227440152
1703231539339,0.20500663454,-0.0363332575999999,-0.2255144882
1703231539353,0.20824545654,-0.0373867805999999,-0.2285834062
1703231539367,0.21194600254,-0.0386314636,-0.2318377452
1703231539381,0.21615930554,-0.0398614426,-0.2351777662
1703231539395,0.22056601854,-0.0403041711999999,-0.2384442452
1703231539410,0.22513142954,-0.0401851269999999,-0.2416067142
1703231539423,0.23005593854,-0.0389377459999999,-0.2446863322
1703231539437,0.23515104454,-0.0375343589999999,-0.2475747342
1703231539451,0.24029082854,-0.036455931,-0.2501410692
1703231539464,0.24535034454,-0.0360539401999999,-0.2524444842
1703231539479,0.25063774354,-0.0368483296999999,-0.2544543112
1703231539492,0.25594551554,-0.0387991256999999,-0.2561676872
1703231539506,0.26158670254,-0.0412667486999999,-0.2572882412
1703231539520,0.26763436954,-0.0442825006999999,-0.2577534873
1703231539534,0.2740371575399999,-0.0473672196999999,-0.2575475970999999
1703231539548,0.28068468554,-0.0505374146999999,-0.2567159330999999
1703231539563,0.2875089945399999,-0.0540827416999999,-0.2552104171
1703231539576,0.2944144735399999,-0.0579146336999999,-0.2529399860999999
1703231539590,0.3015870175399999,-0.0617469487,-0.2498894890999999
1703231539604,0.3090151105399999,-0.0658525857,-0.2458641730999999
1703231539618,0.31651798154,-0.0705263506999999,-0.2412503940999999
1703231539632,0.3241061565399999,-0.0755214666999999,-0.2362314240999999
1703231539646,0.33179493454,-0.0808725626999999,-0.2307130950999999
1703231539660,0.33952460254,-0.0860930016999999,-0.2243501100999999
1703231539674,0.34762826154,-0.0901954456999999,-0.2170661100999999
1703231539688,0.3561912145399999,-0.0932271526999999,-0.2089420900999999
1703231539702,0.3649406645399999,-0.0952157966999999,-0.2001631050999999
1703231539716,0.37393985354,-0.0969983226999999,-0.1911128810999999
1703231539729,0.3831949745399999,-0.0987733576999999,-0.1817933990999999
1703231539744,0.3923721175399999,-0.1009243226999999,-0.1722176230999999
1703231539757,0.4015900845399999,-0.1029731586999999,-0.1623719220999999
1703231539771,0.4111165545399999,-0.1043847816999999,-0.1522592820999999
1703231539785,0.4206941065399999,-0.1053536279999999,-0.1419236820999999
1703231539800,0.4305755765399999,-0.1060115643999999,-0.1314973620999999
1703231539813,0.4403519905399999,-0.1068368293999999,-0.1210354820999999
1703231539827,0.4503993805399999,-0.1075150998999999,-0.1103594320999999
1703231539841,0.4607245005399999,-0.1081498387999999,-0.0995188220999999
1703231539855,0.47136643054,-0.1084157539999999,-0.0885865420999999
1703231539869,0.48242208054,-0.1090434089999999,-0.0775313720999999
1703231539883,0.49405061054,-0.1095608361999999,-0.0665139320999999
1703231539897,0.5062993305400001,-0.1108031511999999,-0.0552174220999999
1703231539911,0.5191479305400001,-0.1121034181999999,-0.0434329120999999
1703231539925,0.5329335505400001,-0.1139233201999999,-0.0314965820999999
1703231539939,0.5476984805400001,-0.1161943961999999,-0.0192103520999999
1703231539953,0.5632299505400001,-0.1191777391999999,-0.0067458120999999
1703231539967,0.5795044705400001,-0.1227156691999999,0.0056882779
1703231539981,0.5963974205400001,-0.1266289631999999,0.0180245079
1703231539995,0.6134676705400001,-0.1310874931999999,0.0300353479
1703231540009,0.6306934205400001,-0.1360310041999999,0.0416048679
1703231540023,0.6478709205400001,-0.1407302811999999,0.0530243079
1703231540037,0.66477617054,-0.1454310061999999,0.0645406479
1703231540051,0.6811411805400001,-0.1500941341999999,0.0760294979
1703231540064,0.69689813054,-0.1546332851999999,0.0874042279
1703231540079,0.7117113605400001,-0.1594126551999999,0.0983163979
1703231540092,0.72532853054,-0.1642325111999999,0.1085583779
1703231540107,0.7375446705400001,-0.1686957571999999,0.1180675229
1703231540120,0.74810316054,-0.1727108961999999,0.1269762079
1703231540134,0.75694700254,-0.1757166241999999,0.1358507449
1703231540148,0.76390702154,-0.1771969781999999,0.1448388859
1703231540162,0.76923706754,-0.1774070805999999,0.1540215589
1703231540176,0.77224063854,-0.1769444694999999,0.1634803439
1703231540191,0.7729862026400001,-0.1764235194999999,0.1732342599
1703231540204,0.77131054164,-0.1759473062999999,0.1837209399
1703231540218,0.76721574364,-0.1753712056999999,0.1950679199
1703231540232,0.76079244164,-0.1747410764999999,0.2074949999000001
1703231540246,0.75212460964,-0.1742565415999999,0.2210847399
1703231540260,0.74183641964,-0.1743993642999999,0.2358033499
1703231540274,0.7300012596400001,-0.1748575780999999,0.2517866599
1703231540288,0.7171209596400001,-0.1758243028999999,0.2687085199
1703231540302,0.7031354296400001,-0.1771203928999999,0.2864558199000001
1703231540316,0.6880038196400001,-0.1788054008999999,0.3045419699000001
1703231540329,0.6720607796400001,-0.1810531198999999,0.3223570699000001
1703231540343,0.6551126896400001,-0.1836383608999999,0.3397035099000001
1703231540357,0.6379164296400002,-0.1863236528999999,0.3565199799000002
1703231540371,0.6205590196400002,-0.1889858248999999,0.3727249299000001
1703231540385,0.6034073496400002,-0.1916780768999999,0.3883846599000001
1703231540399,0.5864020096400002,-0.1941765068999999,0.4037007699000001
1703231540413,0.5697566696400003,-0.1964462678999999,0.4186778099000001
1703231540427,0.5530354396400002,-0.1983760668999999,0.4335929199000001
1703231540441,0.5362792696400003,-0.2003098159,0.4479470699000001
1703231540454,0.5190831396400003,-0.2027302869,0.4615625499000002
1703231540468,0.5014780796400004,-0.2057792389,0.4742801199000002
1703231540482,0.4835964596400003,-0.2085983388999999,0.4866146799000002
1703231540496,0.4655475496400003,-0.2107506408999999,0.4986899699000002
1703231540510,0.4474444896400003,-0.2121303228999999,0.5108442599000002
1703231540524,0.4294255596400003,-0.2127577623,0.5229695299000001
1703231540538,0.4112176896400003,-0.2132470389,0.5348898299000001
1703231540552,0.3928072396400003,-0.2136605104,0.5463525499000002
1703231540566,0.3743031096400003,-0.2139183299,0.5572503899000002
1703231540580,0.3558747696400003,-0.21396281755,0.5677355999000002
1703231540593,0.3377166196400003,-0.21364600485,0.5776277849000002
1703231540607,0.3199286696400003,-0.21271049735,0.5871104259000002
1703231540621,0.3030388696400003,-0.21123297635,0.5960754039000001
1703231540635,0.2868705296400003,-0.20922612435,0.6047501129000001
1703231540649,0.2710832696400003,-0.20701479635,0.6132544629000002
1703231540663,0.2562676596400003,-0.20488259235,0.6216147419000002
1703231540677,0.2424351896400003,-0.20279959035,0.6300309419000002
1703231540691,0.2294666796400003,-0.20070562135,0.6385160989000002
1703231540705,0.2175738696400003,-0.19871493835,0.6471648829000002
1703231540719,0.2063944596400003,-0.19725199135,0.6558579249000002
1703231540733,0.1959173596400003,-0.19662087275,0.6643768169000002
1703231540747,0.1862679716400003,-0.19649348105,0.6727409229000002
1703231540761,0.1773837256400003,-0.19661484575,0.6811411879000002
1703231540775,0.1694250486400003,-0.1966340332699999,0.6897933739000002
1703231540788,0.1624147376400003,-0.1964159621699999,0.6988570679000001
1703231540802,0.1563946436400003,-0.19616324737,0.7082388449000001
1703231540817,0.1512823376400003,-0.1963662639699999,0.7175727429000001
1703231540830,0.1469440436400003,-0.1972152345699999,0.7267509959
1703231540844,0.1435002986400003,-0.1985392335699999,0.7358977519000001
1703231540858,0.1411928296400003,-0.2000912615699999,0.7451763079000001
1703231540872,0.1400575206400003,-0.2019560155699999,0.7548017619000001
1703231540886,0.1398655590400003,-0.2033151325699999,0.7648292019000001
1703231540900,0.1410419820400003,-0.2044735775699999,0.7752274219000002
1703231540914,0.1431007220400003,-0.2050256720699999,0.7859620419000002
1703231540928,0.1458820930400003,-0.2055301640699999,0.7967675219000002
1703231540942,0.1496741110400003,-0.2059503902699999,0.8075068119000002
1703231540955,0.1543289240400003,-0.20574759277,0.8183800619000001
1703231540970,0.1600246120400003,-0.20543230207,0.8294468419000002
1703231540984,0.1665630810400003,-0.2047159375699999,0.8409696819000002
1703231540997,0.1741992000400003,-0.20354775757,0.8531016319000002
1703231541012,0.1828505210400003,-0.20227865157,0.8661655919000002
1703231541025,0.1925253980400003,-0.20129366487,0.8802199819000002
1703231541039,0.2029203780400003,-0.20060392677,0.8954885219000002
1703231541054,0.2137039780400003,-0.20108326957,0.9120036319000002
1703231541067,0.2244681780400003,-0.20285070057,0.9300166019000002
1703231541081,0.2358488180400003,-0.20591068057,0.9495905519000002
1703231541095,0.2475284380400003,-0.20951115657,0.9708222319000002
1703231541109,0.2596829680400003,-0.2132939305699999,0.9943014219
1703231541122,0.2717099680400003,-0.21726264057,1.0199804919000002
1703231541137,0.2837898980400004,-0.22146634157,1.0477449319
1703231541150,0.2949559780400004,-0.22611487757,1.0778878119000002
1703231541164,0.3052184380400004,-0.23114344957,1.1104919019
1703231541178,0.3145151500400003,-0.23604201057,1.1456140719
1703231541192,0.3233048600400003,-0.24090565957,1.1828378619000002
1703231541207,0.3316371910400004,-0.24607459057,1.2219893119000005
1703231541220,0.3395385890400004,-0.25127376757,1.2630465719000004
1703231541234,0.3476389790400004,-0.25659298357,1.3056046319000003
1703231541248,0.3563005920400004,-0.26176756057,1.3497081119000005
1703231541262,0.3658108350400004,-0.26699334357,1.3951913919000003
1703231541276,0.3764264450400004,-0.27199553357,1.4420072119000005
1703231541290,0.3883951050400004,-0.27662066357,1.4901112819000002
1703231541303,0.4018293650400004,-0.28081141957,1.5394759619000002
1703231541317,0.4170350950400003,-0.28450697657,1.5899844419000002
1703231541331,0.4338150750400004,-0.2876801815700001,1.6418568519000003
1703231541345,0.4519246750400004,-0.2904677855700001,1.6953297119000004
1703231541359,0.4711984950400004,-0.2933208285700001,1.7505188419000004
1703231541374,0.4917326550400004,-0.29616460957,1.8077577019000004
1703231541387,0.5129780450400004,-0.29941711157,1.8674636819000003
1703231541401,0.5350915950400005,-0.3029200865700001,1.9299592619000003
1703231541415,0.5575867050400005,-0.3067005495700001,1.9956838319000003
1703231541429,0.5805285950400005,-0.3110103845700001,2.0645747019000003
1703231541444,0.6040892750400005,-0.3160137605700001,2.1370726019000004
1703231541457,0.6282820750400006,-0.3214263515700001,2.2130715719000005
1703231541471,0.6528207850400005,-0.3275392295700001,2.2931694419000004
1703231541485,0.6777177450400005,-0.3336478635700001,2.3773199119000004
1703231541499,0.7032044450400005,-0.3398561135700001,2.4659028419
1703231541513,0.7290491950400004,-0.3458585625700001,2.5587854719000003
1703231541528,0.7551260150400004,-0.3516597495700001,2.6558100219000003
1703231541540,0.7813541550400004,-0.3579287255700001,2.7566588219000003
1703231541554,0.8076196650400004,-0.3643890465700001,2.8614698219000005
1703231541568,0.8337831450400004,-0.3711931275700001,2.9701907219000003
1703231541582,0.8602227750400004,-0.3779165895700001,3.0830320219000003
1703231541596,0.8866853350400005,-0.3842778005700001,3.1999171219000004
1703231541610,0.9133848450400004,-0.3902039575700001,3.3206673219
1703231541624,0.9404203750400004,-0.3958629875700001,3.4455006219000004
1703231541638,0.9677673750400004,-0.4011761035700001,3.5742333219000004
1703231541652,0.9955863350400004,-0.4064799255700001,3.7067222219
1703231541665,1.0240991650400004,-0.4119752865700001,3.8428201219
1703231541680,1.0532585150400005,-0.4177294235700001,3.9828421219
1703231541693,1.0836466950400006,-0.4237210175700001,4.1271123219
1703231541707,1.1157376250400006,-0.4296184715700001,4.2754320219
1703231541721,1.1493045850400003,-0.4355872015700001,4.4278532219
1703231541735,1.1843203350400004,-0.44165789957,4.5842093219
1703231541749,1.2204114550400005,-0.4485011715700001,4.7438472219
1703231541763,1.2576081850400005,-0.4562273075700001,4.906528021900001
1703231541777,1.2956298450400006,-0.4647685625700001,5.072328421900001
1703231541792,1.3347374050400005,-0.4738535355700001,5.241018121900001
1703231541805,1.3746710350400004,-0.4832824015700001,5.412839621900001
1703231541819,1.4152808450400003,-0.49289171957,5.587387421900001
1703231541833,1.4561685650400005,-0.50299448957,5.7645052219
1703231541847,1.4972094550400006,-0.51375574957,5.944261521900001
1703231541860,1.5384298550400006,-0.5250266395700001,6.1265773219
1703231541875,1.5795653850400009,-0.5369296195700001,6.3114946219000005
1703231541888,1.6207034050400009,-0.5496600395700001,6.4992698219000005
1703231541902,1.6619702550400006,-0.5627568795700001,6.6903274219
1703231541916,1.7036204250400009,-0.5761221495700001,6.8850655219000005
1703231541930,1.7461116050400007,-0.58953248957,7.0836828219
1703231541944,1.7894785550400008,-0.60387988957,7.2864190219
1703231541958,1.8340654250400008,-0.6192526595700001,7.4931789219
1703231541972,1.8799589350400008,-0.6361593795700001,7.7040734219
1703231541986,1.9277417350400008,-0.6558572395700001,7.919020721900001
1703231541999,1.9779764150400008,-0.6797366495700001,8.1383311219
1703231542013,2.0312151950400006,-0.7083409795700001,8.3617695219
1703231542027,2.0879615750400005,-0.74255307957,8.5891205219
1703231542041,2.149071155040001,-0.7823060295700001,8.8201867219
1703231542055,2.2157491250400008,-0.8276167695700001,9.0544737219
1703231542070,2.288305275040001,-0.87639849957,9.2914010219
1703231542083,2.367537015040001,-0.92537743957,9.5309338219
1703231542097,2.454326205040001,-0.97259510957,9.7732595219
1703231542111,2.548770555040001,-1.0170009395700002,10.0190895219
1703231542124,2.651481955040001,-1.05826730957,10.2685749219
1703231542139,2.762849355040001,-1.09638365957,10.5223590219
1703231542153,2.883449355040001,-1.13146981957,10.7806354219
1703231542167,3.012641555040001,-1.16394351957,11.0426525219
1703231542180,3.150721855040001,-1.19391645957,11.308135021899998
1703231542194,3.296581555040001,-1.22118112957,11.576662221899998
1703231542208,3.4501818550400007,-1.2451428995700002,11.848709421899995
1703231542222,3.612488955040001,-1.2647625295700002,12.125362021899996
1703231542235,3.783305055040001,-1.2794985095700002,12.407139521899998
1703231542249,3.962610955040001,-1.2891795975700002,12.695009821899998
1703231542263,4.150595855040001,-1.2934568105700002,12.989736921899995
1703231542277,4.347552555040001,-1.29267606147,13.291955621899996
1703231542291,4.553772855040001,-1.28740178747,13.602908421899995
1703231542305,4.768566055040001,-1.27891284247,13.922901421899995
1703231542318,4.992374355040001,-1.26896224047,14.252553421899997
1703231542332,5.225611955040001,-1.25780871047,14.592635421899995
1703231542346,5.46873145504,-1.24675153047,14.943715521899998
1703231542360,5.722582255040001,-1.23647532047,15.306600121899995
1703231542374,5.986772855040001,-1.22824873547,15.680411421899995
1703231542388,6.261491155040001,-1.22249061847,16.0648964219
1703231542402,6.5468026550400005,-1.21984867847,16.4602680219
1703231542416,6.84350625504,-1.22043167747,16.8675820219
1703231542429,7.1518357550400005,-1.22478407047,17.2867060219
1703231542444,7.47154295504,-1.23383754247,17.7171515219
1703231542458,7.80319655504,-1.24776687247,18.1594600219
1703231542471,8.14699105504,-1.26487481247,18.6133245219
1703231542485,8.503809355040001,-1.28433675247,19.0790842219
1703231542499,8.874196155040002,-1.30586250247,19.5569940219
1703231542513,9.25896035504,-1.32885660247,20.0476055219
1703231542527,9.65770305504,-1.3534166024699998,20.5506873219
1703231542541,10.07037685504,-1.37919545247,21.0658651219
1703231542555,10.49706485504,-1.40636593247,21.5924140219
1703231542568,10.937572055040002,-1.43393127247,22.1297295219
1703231542583,11.392523355040002,-1.46096073247,22.6779413219
1703231542596,11.86169815504,-1.48681084247,23.2362293219
1703231542610,12.34517615504,-1.51148832247,23.8044334219
1703231542624,12.84202645504,-1.53574335247,24.3812400219
1703231542637,13.35127205504,-1.56020819247,24.9660991219
1703231542652,13.87186145504,-1.58578262247,25.5579033219
1703231542666,14.40258695504,-1.61359548247,26.1554160219
1703231542680,14.94201205504,-1.64449078247,26.7574029219
1703231542694,15.48672035504,-1.67727952247,27.3624952219
1703231542707,16.03563475504,-1.70333429247,27.9719285219
1703231542721,16.59010435504,-1.7000953064700002,28.5895985219
1703231542735,17.14806445504,-1.66057293647,29.2156839219
1703231542749,17.71199695504,-1.5986269164700002,29.8557727219
1703231542763,18.27316665504,-1.5220377264700002,30.4988914219
1703231542777,18.82748205504,-1.44303201647,31.1434165219
1703231542791,19.37180205504,-1.3664647764700002,31.7885477219
1703231542805,19.90197145504,-1.29484917647,32.4348283219
1703231542819,20.41637035504,-1.2305566864700002,33.0815160219
1703231542833,20.91367815504,-1.17326189647,33.7287500219
1703231542848,21.39389795504,-1.1177248964700002,34.3790153219
1703231542860,21.85968445504,-1.05563015647,35.0349344219
1703231542874,22.31284105504,-0.98372218647,35.6974345219
1703231542888,22.75393005504,-0.90461557647,36.3655031219
1703231542902,23.183600955040003,-0.8223109464700001,37.0367945219
1703231542916,23.60486725504,-0.7366814864700001,37.7110502219
1703231542931,24.02167185504,-0.6448808264700001,38.3898001219
1703231542944,24.43785965504,-0.5450991264700001,39.0756643219
1703231542958,24.85573435504,-0.4401719264700001,39.7696114219
1703231542972,25.27614455504,-0.3367038264700001,40.4720625219
1703231542986,25.69998935504,-0.2397784064700001,41.1840263219
1703231543000,26.12694815504,-0.1521404464700001,41.9056914219
1703231543014,26.55696255504,-0.0772972064700001,42.6372905219
1703231543027,26.990160555040003,-0.0184069564700001,43.3784865219
1703231543041,27.42662015504,0.0208081135299998,44.1290111219
1703231543055,27.866188755040003,0.0367247035299998,44.8894827219
1703231543069,28.308490455040005,0.0294468865299998,45.659936321900005
1703231543083,28.753231555040006,-0.0009514134700001,46.441029521900006
1703231543097,29.199239455040008,-0.0513141134700001,47.232432321900006
1703231543111,29.645849755040008,-0.1208511534700001,48.03393022190001
1703231543125,30.09290495504001,-0.2086168334700001,48.845584321900006
1703231543139,30.54018995504001,-0.3116525334700001,49.6667181219
1703231543153,30.98780845504001,-0.4275125334700001,50.4976021219
1703231543167,31.43520385504001,-0.5534064334700002,51.338604121900005
1703231543180,31.881589355040013,-0.6883138334700002,52.1905471219
1703231543194,32.32612325504002,-0.8316395334700002,53.0532313219
1703231543208,32.76876055504002,-0.9809997334700002,53.9261051219
1703231543222,33.20973595504002,-1.1328297334700002,54.8100054219
1703231543236,33.64906805504002,-1.2816313334700002,55.7045373219
1703231543250,34.08684105504002,-1.42292053347,56.6105659219
1703231543263,34.522734455040016,-1.5535057334700002,57.5295142219
1703231543278,34.95645995504002,-1.6691263334700002,58.46275972189999
1703231543291,35.388002955040015,-1.7684037434700002,59.40929802189999
1703231543307,35.81651605504001,-1.85205608347,60.3669287219
1703231543320,36.240314455040014,-1.92325772347,61.3316028219
1703231543333,36.658542555040015,-1.98140411347,62.2986615219
1703231543347,37.07444885504002,-2.0060755234700003,63.2695841219
1703231543361,37.49375265504002,-1.9734352234700003,64.24737222190001
1703231543375,37.923681255040016,-1.8901994234700004,65.2374502219
1703231543389,38.366835155040015,-1.7785540234700004,66.2344895219
1703231543403,38.820841155040014,-1.6638344234700004,67.2256030219
1703231543416,39.28670525504001,-1.5635986234700003,68.2040875219
1703231543430,39.76460535504001,-1.4799410634700003,69.16561822189999
1703231543444,40.25530315504001,-1.4013639734700003,70.1099358219
1703231543458,40.75984145504001,-1.3135235134700003,71.04277082189999
1703231543474,41.27999555504001,-1.2068997134700004,71.9685079219
1703231543486,41.81363405504001,-1.0845956134700003,72.8879597219
1703231543500,42.35539745504001,-0.9550604134700004,73.7985880219
1703231543514,42.90075775504001,-0.8229323134700004,74.7001670219
1703231543528,43.44692535504001,-0.6860583134700005,75.5943841219
1703231543542,43.99347315504001,-0.5455498134700004,76.48524102190001
1703231543556,44.539614155040006,-0.4064696134700004,77.3755537219
1703231543569,45.08469525504,-0.2754556134700004,78.2671925219
1703231543583,45.62900795504,-0.1587591134700005,79.1626264219
1703231543597,46.17287305504,-0.0589320834700004,80.0638657219
1703231543611,46.71704315504,0.0209050465299995,80.97206502190001
1703231543625,47.26205065504,0.0764881265299995,81.8874733219
1703231543640,47.80737065504,0.1053143365299995,82.80827442190001
1703231543653,48.35246565504,0.1056089855299995,83.73405012190001
1703231543666,48.89797485504,0.0770176755299995,84.66369522190001
1703231543680,49.44481965504,0.0218326455299994,85.59675872190002
1703231543695,49.99521015504,-0.0571261044700005,86.53321992190001
1703231543710,50.55076155504,-0.1535545844700005,87.47370512190001
1703231543722,51.11252735504,-0.2628888844700005,88.41868242190002
1703231543736,51.68086775504,-0.3809088844700005,89.36844952190002
1703231543750,52.25694725504,-0.5055883844700004,90.3222300219
1703231543764,52.84077995504,-0.6372625844700004,91.27791232190002
1703231543778,53.43270435504,-0.7776374844700004,92.23349942190002
1703231543792,54.03360885504,-0.9267561844700004,93.18735372190002
1703231543806,54.64287595504,-1.0815337844700004,94.13964102190002
1703231543820,55.26057255504,-1.2374360844700003,95.09168732190004
1703231543833,55.88644045504,-1.3874173844700004,96.04536732190004
1703231543848,56.520207155040005,-1.5261404844700004,97.00167602190002
1703231543862,57.16266515504,-1.6500364844700004,97.96130212190002
1703231543876,57.81411905504,-1.7583496844700004,98.92292762190002
1703231543889,58.474083755040006,-1.8490211144700004,99.88505952190002
1703231543903,59.13943545504001,-1.9204115744700003,100.84539902190002
1703231543917,59.80561585504001,-1.97253910447,101.80350702190002
1703231543931,60.47089755504001,-1.98998851447,102.76395862190002
1703231543946,61.137529855040015,-1.94843729447,103.7344848219
1703231543959,61.809183655040016,-1.86139385447,104.72364662190002
1703231543973,62.48259885504002,-1.7557496544700002,105.72718662190002
1703231543987,63.14972525504002,-1.6562416244700002,106.73274262190002
1703231544001,63.80628245504002,-1.57668802447,107.73143222190002
1703231544015,64.44799985504002,-1.52162220447,108.71720402190002
1703231544029,65.07329135504003,-1.48111937447,109.6882570219
1703231544043,65.68155045504002,-1.44551232447,110.6485061219
1703231544057,66.27188085504002,-1.40248258447,111.6034608219
1703231544071,66.84687545504002,-1.34030203447,112.55933422190002
1703231544084,67.41051485504002,-1.24744898447,113.51987582190002
1703231544099,67.96693725504002,-1.1174968844700002,114.4864062219
1703231544112,68.51801005504002,-0.9561476844700002,115.4595365219
1703231544126,69.06498385504003,-0.7766246844700002,116.4363692219
1703231544141,69.61047355504003,-0.5902000844700002,117.4161573219
1703231544154,70.15744545504003,-0.4045618844700002,118.4006299219
1703231544168,70.70767365504004,-0.2265147844700001,119.3910537219
1703231544183,71.26159685504004,-0.0648187844700001,120.3885343219
1703231544196,71.81838335504004,0.0736380155299998,121.3918293219
1703231544210,72.37672035504004,0.1825355155299998,122.4000493219
1703231544224,72.93656055504003,0.2579954755299998,123.4136823219
1703231544238,73.49832775504004,0.2988101955299997,124.4334633219
1703231544252,74.06289145504003,0.3053440155299998,125.4600793219
1703231544265,74.63076915504003,0.2763775455299997,126.4944583219
1703231544280,75.19973355504003,0.2155221655299997,127.5361733219
1703231544293,75.76782045504002,0.1257402355299997,128.5869113219
1703231544307,76.33417255504003,0.0140121355299997,129.6473393219
1703231544321,76.89960105504002,-0.1139941644700002,130.7188793219
1703231544335,77.46548855504003,-0.2520404644700003,131.8020733219
1703231544349,78.03183485504003,-0.3971000644700003,132.8968563219
1703231544363,78.59698375504003,-0.5477259644700003,134.0019573219
1703231544377,79.15875185504002,-0.6997446644700003,135.1164903219
1703231544390,79.71678255504003,-0.8462512644700002,136.24251732189998
1703231544405,80.27256225504003,-0.9795521644700004,137.3808303219
1703231544419,80.82723485504003,-1.0967701644700003,138.5309293219
1703231544432,81.38111275504004,-1.1999940644700002,139.69078732190002
1703231544446,81.93299515504003,-1.2934626244700005,140.85665732190003
1703231544460,82.48204215504003,-1.3809160744700002,142.02393632190004
1703231544474,83.02793545504004,-1.4579360944700002,143.18835432190005
1703231544488,83.57437325504004,-1.48899721447,144.35128432190004
1703231544501,84.12785455504005,-1.46307879447,145.51786232190003
1703231544515,84.69787985504004,-1.40548470447,146.69700132190002
1703231544529,85.28072685504004,-1.3394960044700002,147.8784503219
1703231544544,85.87306535504004,-1.2759190344700002,149.0538953219
1703231544557,86.47425805504004,-1.2123979044700002,150.2213003219
1703231544571,87.08445575504004,-1.1340501344700002,151.3782123219
1703231544585,87.70549865504005,-1.0373107944700002,152.5251463219
1703231544599,88.33880585504005,-0.9269873944700002,153.6603573219
1703231544613,88.98166905504004,-0.8104669944700003,154.7819253219
1703231544627,89.63108315504005,-0.6934591944700003,155.88923332189998
1703231544641,90.28390935504004,-0.5752045944700003,156.98111532189998
1703231544656,90.93742515504005,-0.4560078944700003,158.05916332189997
1703231544669,91.59080315504004,-0.3377828944700003,159.12565832189998
1703231544682,92.24329195504004,-0.2230755944700003,160.18350232189997
1703231544696,92.89549815504004,-0.1142730944700003,161.23704032189997
1703231544710,93.54649325504003,-0.0140889944700003,162.28880232189996
1703231544724,94.19468305504004,0.0726551755299996,163.33976032189997
1703231544738,94.83885455504004,0.1411949255299996,164.39102432189998
1703231544752,95.47866455504004,0.1870502855299997,165.44318932189998
1703231544766,96.11472095504004,0.2068113855299997,166.49678832189997
1703231544780,96.74867775504003,0.1990162275299997,167.55281832189996
1703231544794,97.38228815504004,0.1660637475299997,168.61195632189995
1703231544809,98.01714005504004,0.1098846975299996,169.67370832189997
1703231544821,98.65405985504005,0.0326041575299996,170.73733132189997
1703231544835,99.29473365504003,-0.0607081324700003,171.80072032189997
1703231544849,99.94099235504004,-0.1635712324700003,172.86326332189998
1703231544864,100.59524795504004,-0.2730790324700003,173.92470432189998
1703231544877,101.25799425504005,-0.3881376324700003,174.9846553219
1703231544892,101.92893505504004,-0.5102899324700003,176.04223932189998
1703231544905,102.60695155504004,-0.6413193324700003,177.0969023219
1703231544919,103.29184735504003,-0.7794574324700003,178.1489343219
1703231544932,103.98323045504004,-0.9212000324700004,179.1985293219
1703231544947,104.68194805504002,-1.0623776324700005,180.2451263219
1703231544960,105.38737395504002,-1.2014260324700003,181.2889473219
1703231544974,106.09823935504002,-1.3364480324700003,182.3292823219
1703231544988,106.81189965504002,-1.4642620324700004,183.3652853219
1703231545002,107.52357615504002,-1.5840099324700003,184.3963743219
1703231545016,108.23015375504002,-1.6882182324700004,185.4220873219
1703231545030,108.93417885504002,-1.7445920824700003,186.4474523219
1703231545045,109.64339905504002,-1.7332122224700004,187.4811593219
1703231545058,110.36226705504002,-1.6773571524700004,188.5326283219
1703231545072,111.07819185504002,-1.6129364724700004,189.5892653219
1703231545086,111.77841855504002,-1.5626876524700004,190.6385543219
1703231545100,112.45942435504,-1.5329708324700004,191.6790133219
1703231545113,113.11742105504,-1.5134311824700004,192.7083053219
1703231545127,113.75618365504002,-1.4884097224700004,193.7308963219
1703231545142,114.37917485504002,-1.4436942024700004,194.75225432189995
1703231545155,114.98956775504,-1.3691597324700004,195.77764232189995
1703231545169,115.58867105504,-1.2590170324700003,196.80997232189995
1703231545183,116.17817185504,-1.1136428324700005,197.84811132189995
1703231545197,116.75955395504,-0.9414124324700004,198.89210432189995
1703231545211,117.33456035504,-0.7539618324700005,199.9390963219
1703231545225,117.90537345504,-0.5637881324700005,200.9878733219
1703231545239,118.47480025504,-0.3820249324700004,202.0377653219
1703231545253,119.04521275504,-0.2166675324700004,203.0889853219
1703231545266,119.61834915504,-0.0739220324700004,204.14200132189995
1703231545281,120.19439295504,0.0414898675299995,205.19790732189995
1703231545294,120.77288645504,0.1241794075299995,206.2573853219
1703231545308,121.35245235504,0.1744662175299995,207.32138632189995
1703231545321,121.93343025504,0.1927327475299995,208.3903873219
1703231545335,122.51593165504,0.1803709675299995,209.4652343219
1703231545350,123.09980835504,0.1396028675299995,210.5458523219
1703231545363,123.68412315504,0.0711389575299995,211.63236832189992
1703231545377,124.26769945504,-0.0218890924700004,212.72437432189992
1703231545391,124.84963235504,-0.1387798924700004,213.8217633218999
1703231545405,125.42922415504,-0.2738020924700005,214.9248843218999
1703231545419,126.00508145504,-0.4231046924700005,216.0349603218999
1703231545433,126.57579195504,-0.5837639924700004,217.15304932189989
1703231545447,127.14105045504,-0.7538998924700004,218.27994132189988
1703231545461,127.70109165504,-0.9266119924700004,219.4149583218999
1703231545475,128.25721455504,-1.0940278924700004,220.5582823218999
1703231545488,128.81234625504,-1.2513787924700004,221.7093783218999
1703231545502,129.36793125504002,-1.3951384924700003,222.86807332189989
1703231545516,129.92352215504002,-1.5222232924700003,224.0330443218999
1703231545531,130.47831785504002,-1.6324265924700003,225.2015993218999
1703231545545,131.03063835504005,-1.7252271924700002,226.36950532189988
1703231545558,131.58433345504002,-1.7751102224700002,227.53778332189987
1703231545572,132.14471725504004,-1.7529631824700005,228.71087032189988
1703231545586,132.72204495504005,-1.6749490424700002,229.8992863218999
1703231545599,133.31412735504006,-1.5746599424700003,231.09379032189983
1703231545613,133.91264195504004,-1.4746076424700003,232.27942632189985
1703231545627,134.51631715504004,-1.3810433224700005,233.45116832189984
1703231545642,135.12507175504004,-1.2866011524700005,234.60549832189983
1703231545655,135.73903455504004,-1.1828601524700002,235.74059932189985
1703231545669,136.35914305504002,-1.0674324524700003,236.85679132189983
1703231545683,136.98444145504,-0.9416444524700004,237.95379532189983
1703231545696,137.61249255504,-0.8078291524700003,239.03134532189983
1703231545711,138.24313735504,-0.6625028524700003,240.08997532189983
1703231545724,138.87687295504,-0.4994930524700003,241.13491332189983
1703231545738,139.51419305504,-0.3219683524700003,242.17186332189985
1703231545752,140.15329615504,-0.1429337524700003,243.20213532189985
1703231545766,140.79122145504002,0.0237917475299996,244.22682932189983
1703231545781,141.42754775504002,0.1686591475299996,245.24827032189984
1703231545794,142.06200935504003,0.2847213475299996,246.26951432189983
1703231545808,142.69513995504002,0.3694472375299996,247.29353532189984
1703231545822,143.32775275504002,0.4204143075299996,248.32240032189983
1703231545836,143.95996735504002,0.4342464575299996,249.35673832189983
1703231545850,144.59210425504003,0.4123340275299996,250.39592332189983
1703231545864,145.22449575504004,0.3586760875299996,251.43984132189985
1703231545878,145.85841725504005,0.2771220075299996,252.48911532189985
1703231545891,146.49582155504004,0.1746108075299996,253.5433553218998
1703231545906,147.13810645504003,0.0561904075299996,254.6014413218998
1703231545919,147.78589305504002,-0.0744228924700003,255.6623993218998
1703231545933,148.43941535504,-0.2150287924700004,256.7251343218998
1703231545947,149.09922605504002,-0.3639143924700004,257.7879133218998
1703231545961,149.76664695504002,-0.5173971924700004,258.8493553218998
1703231545975,150.44304085504,-0.6718550924700004,259.9091523218998
1703231545988,151.12794755504,-0.8254394924700004,260.96684432189977
1703231546002,151.81976815504,-0.9754269924700004,262.0220683218998
1703231546016,152.51703325504002,-1.1193952924700004,263.07435532189976
1703231546030,153.21911845504002,-1.2550722924700004,264.1234983218998
1703231546044,153.92561155504,-1.3787933924700004,265.1677783218998
1703231546058,154.63505755504002,-1.4895630924700003,266.2040503218998
1703231546072,155.34425835504,-1.5850363924700006,267.23183932189977
1703231546086,156.05358615504002,-1.6388085024700003,268.2578813218998
1703231546099,156.76790155504003,-1.6208594324700003,269.29247432189976
1703231546114,157.49424335504003,-1.5422697124700004,270.35017732189976
1703231546128,158.22502075504002,-1.4396536124700003,271.4199433218998
1703231546142,158.94980385504002,-1.3392351124700004,272.48510332189977
1703231546155,159.66286845504,-1.2535086824700004,273.53909532189977
1703231546169,160.35925635504,-1.1789835024700004,274.5820043218998
1703231546183,161.03735085504,-1.1045662124700004,275.6188733218998
1703231546197,161.69982265503998,-1.0185824724700003,276.6568453218998
1703231546212,162.34979565503997,-0.9111144724700004,277.7001493218998
1703231546225,162.99182135503997,-0.7809358724700003,278.7504753218998
1703231546238,163.62690665503996,-0.6288994724700003,279.8057823218998
1703231546252,164.25546625503995,-0.4613084724700003,280.8640723218998
1703231546266,164.87860005503995,-0.2868188724700004,281.92179132189983
1703231546280,165.49814225503997,-0.1121840724700003,282.97658332189985
1703231546295,166.11499665503996,0.0545105275299996,284.0284263218999
1703231546308,166.73063845503995,0.2084071275299996,285.0793463218999
1703231546322,167.34668255503996,0.3445238275299996,286.1312583218999
1703231546336,167.96411805503996,0.4574245275299997,287.1858593218999
1703231546350,168.58264785503997,0.5407684475299996,288.2441123218999
1703231546364,169.20267755503997,0.5917001675299997,289.30579032189985
1703231546378,169.82451305503997,0.6083918975299997,290.37107832189986
1703231546392,170.44852715503998,0.5903613175299997,291.4412933218999
1703231546405,171.07482015504,0.5394837675299996,292.5174543218999
1703231546419,171.70302375504,0.4580020275299996,293.60065332189987
1703231546433,172.33108825504,0.3502314275299996,294.69132532189985
1703231546448,172.95714445503998,0.2188404275299996,295.79072132189987
1703231546463,173.57988855504,0.0696936275299996,296.89890132189987
1703231546475,174.19951015503997,-0.0897870724700003,298.0168083218999
1703231546488,174.81667385503997,-0.2528123724700004,299.14408332189987
1703231546502,175.43231115503997,-0.4158635724700004,300.2815943218999
1703231546516,176.04525305503998,-0.5758221724700003,301.42925432189986
1703231546532,176.65355885504,-0.7298790724700004,302.5872983218999
1703231546545,177.25667945504,-0.8763792724700004,303.75488132189986
1703231546558,177.85491495504,-1.0138879724700005,304.9299243218999
1703231546572,178.44929025503998,-1.1390058724700003,306.1105253218999
1703231546587,179.03986765503998,-1.2476446724700003,307.2933503218999
1703231546600,179.62681505504,-1.3399632824700003,308.4739563218999
1703231546614,180.21255075504,-1.3935307324700004,309.65320132189987
1703231546628,180.80230275504,-1.3808059124700005,310.8332883218999
1703231546642,181.40372405504,-1.3255207524700003,312.0206313218999
1703231546655,182.01352295504,-1.2624159824700003,313.2061613218999
1703231546669,182.62635095504,-1.2076961824700003,314.37978332189994
1703231546684,183.24144255504,-1.1584291724700004,315.5398713218999
1703231546697,183.86123195504,-1.0983634224700003,316.6889983219
1703231546711,184.48920345504,-1.0184986224700006,317.8279003218999
1703231546725,185.12699555504,-0.9197268824700006,318.9550193218999
1703231546739,185.77090205504,-0.8086339824700006,320.06640832189987
1703231546753,186.41751045504,-0.6921169824700006,321.1598363218999
1703231546767,187.06588735504,-0.5702794824700006,322.2353403218999
1703231546780,187.71670175504,-0.4373613824700005,323.2978843218999
1703231546794,188.37019735504,-0.2907458824700005,324.3527603218999
1703231546809,189.02509695504,-0.1365881824700005,325.4043253218999
1703231546822,189.67933175504,0.0127462175299994,326.4536033218999
1703231546836,190.33217765504,0.1466570175299994,327.5023093218999
1703231546850,190.98427795504,0.2584789175299994,328.5515703218999
1703231546864,191.63519135504,0.3431067875299994,329.6023333218999
1703231546878,192.28448755504,0.3959530375299994,330.6545153218999
1703231546891,192.93266125504,0.4167863075299994,331.7078783218999
1703231546906,193.58039085504,0.4055370175299994,332.7630013218999
1703231546920,194.22904085504,0.3636014775299994,333.82136332189987
1703231546933,194.88032885504,0.2961509775299994,334.8840403218999
1703231546947,195.53566285504,0.2064620175299994,335.95111932189985
1703231546961,196.19699145504,0.0973917175299994,337.02127932189984
1703231546975,196.86559475504,-0.0294466824700005,338.0926323218998
1703231546989,197.54129045504,-0.1697957824700005,339.16400032189983
1703231547003,198.22515055504,-0.3210914824700005,340.2355583218998
1703231547017,198.91802915504,-0.4798157824700005,341.3082633218998
1703231547031,199.61987555504,-0.6427270824700005,342.3824353218998
1703231547045,200.33063825504,-0.8074562824700006,343.4574513218998
1703231547058,201.04903585504,-0.9703624824700006,344.5318733218998
1703231547073,201.77347325504,-1.1272827824700005,345.6043273218998
1703231547086,202.50287395504003,-1.2742014824700003,346.6743753218998
1703231547100,203.23644815504,-1.4072306824700005,347.74138932189976
1703231547114,203.97363985504003,-1.5223654824700006,348.80375932189975
1703231547128,204.71269715504005,-1.6176406524700009,349.85982332189974
1703231547142,205.45223835504004,-1.6770678424700007,350.91408732189973
1703231547156,206.19342545504003,-1.6645715224700008,351.97440332189973
1703231547169,206.93932625504,-1.5959360224700008,353.0523033218997
1703231547183,207.68513575504,-1.5109844224700009,354.1438043218997
1703231547197,208.42016915504,-1.436817872470001,355.23155832189974
1703231547211,209.14195045504,-1.3856545824700008,356.31015632189974
1703231547225,209.84663535504,-1.351904872470001,357.37812132189976
1703231547239,210.53218755504,-1.315407902470001,358.4368853218997
1703231547253,211.19976795504,-1.2601685124700008,359.49384432189976
1703231547267,211.85091155504,-1.1764623124700009,360.55483132189977
1703231547280,212.48935745504,-1.0616798124700009,361.6228843218998
1703231547294,213.11808605504,-0.9087018124700008,362.69766532189976
1703231547309,213.73941765504,-0.7197638124700008,363.7780053218997
1703231547322,214.35491985504,-0.5071854124700008,364.86328632189975
1703231547336,214.96642435504,-0.2866312124700008,365.9505783218997
1703231547350,215.57541975504,-0.0724366124700007,367.03918632189976
1703231547364,216.18361765504,0.1234565875299992,368.1299383218998
1703231547378,216.79258255504,0.2938223875299992,369.22387332189976
1703231547392,217.40235785503995,0.4320407875299992,370.32180932189976
1703231547406,218.01335355504,0.5333524875299992,371.42382432189976
1703231547419,218.62535805503995,0.5924431175299992,372.52948532189976
1703231547433,219.23875245504,0.6106870975299993,373.6385303218997
1703231547448,219.85386455504,0.5903204975299993,374.7503863218997
1703231547462,220.47122095504,0.5320138575299993,375.8661803218997
1703231547476,221.08981105504,0.4409403275299993,376.9872563218997
1703231547489,221.70802435504,0.3212516275299993,378.1147533218997
1703231547503,222.32481615504,0.1780614275299993,379.2501323218997
1703231547516,222.94080235504,0.0173406275299993,380.39460532189975
1703231547530,223.55526755504,-0.1535120724700006,381.5485603218997
1703231547546,224.16580445504,-0.3312479724700007,382.71212132189976
1703231547558,224.77004605504,-0.5129212724700007,383.8845693218997
1703231547572,225.36676425504,-0.6949463724700007,385.0649323218997
1703231547586,225.95700005504,-0.8704692724700007,386.25402132189976
1703231547600,226.54315555504,-1.0324260724700007,387.4526753218997
1703231547614,227.12737655504,-1.1750993724700007,388.6623353218997
1703231547629,227.71019665504,-1.2942035724700007,389.8827493218997
1703231547642,228.29089135504,-1.3921256924700007,391.1101943218997
1703231547656,228.86843815504,-1.471330732470001,392.3374963218997
1703231547669,229.44399065503995,-1.5176707724700007,393.5620733218997
1703231547684,230.02286205503995,-1.4909831524700008,394.7885633218997
1703231547697,230.61431015504,-1.3993463324700008,396.0269983218997
1703231547712,231.22094085504,-1.2787657324700008,397.27599832189975
1703231547725,231.83583135504,-1.1609351324700008,398.51907932189977
1703231547739,232.45697615504,-1.0598246324700007,399.74922832189975
1703231547753,233.08395255504,-0.9682796124700008,400.96178332189976
1703231547766,233.71468055504,-0.8732957624700007,402.1537313218998
1703231547782,234.35058485503995,-0.7679556624700007,403.3263003218998
1703231547796,234.99482445503995,-0.6477108624700006,404.4783853218998
1703231547809,235.64827595504,-0.5128246624700006,405.6113043218998
1703231547821,236.30846405504,-0.3621531624700005,406.7282473218998
1703231547835,236.97388105503995,-0.1900559624700005,407.8327413218998
1703231547849,237.64407915503992,-0.0007610624700005,408.92956232189977
1703231547863,238.3180828550399,0.1932970375299994,410.02063332189977
1703231547878,238.99473445503992,0.3779267375299994,411.10722732189976
1703231547891,239.67348125503992,0.5420090375299994,412.19147032189977
1703231547905,240.35491415503992,0.6800343375299994,413.27570632189975
1703231547919,241.03965075504,0.7841825375299994,414.36056332189975
1703231547932,241.72774445503995,0.8524405875299994,415.4453863218997
1703231547946,242.41871345503992,0.8828692575299995,416.5303533218997
1703231547960,243.1115754550399,0.8734826845299994,417.61547132189975
1703231547974,243.80559145503992,0.8294242645299994,418.7016183218997
1703231547988,244.50116225504,0.7558649345299994,419.78979732189975
1703231548002,245.19978365504,0.6589066745299994,420.8813483218997
1703231548016,245.90391595504,0.5436655745299994,421.97639432189976
1703231548029,246.61415715503995,0.4141355745299994,423.07330032189975
1703231548044,247.33010005504,0.2693482745299994,424.17071832189976
1703231548057,248.05081115503992,0.1084161745299993,425.26746132189976
1703231548071,248.77620755503992,-0.0634858254700006,426.3632893218997
1703231548085,249.50820495504,-0.2393209254700006,427.4592753218997
1703231548099,250.24908735504,-0.4117190254700006,428.5570483218997
1703231548113,250.99960025503992,-0.5754340254700006,429.65709332189977
1703231548127,251.75792405503992,-0.7303572254700006,430.75796032189976
1703231548142,252.52174495504,-0.8773190254700006,431.8579543218997
1703231548155,253.28877365504,-1.0141737254700005,432.95664732189977
1703231548169,254.05721475503992,-1.1382617254700005,434.0533363218998
1703231548182,254.82370045503995,-1.2494889254700006,435.1451763218998
1703231548196,255.58517475504,-1.3438878354700006,436.23084932189977
1703231548209,256.34426875503993,-1.3780951954700005,437.3189813218997
1703231548224,257.1060919550399,-1.3388562354700004,438.4184763218997
1703231548239,257.8722427550399,-1.2610584954700004,439.5418363218997
1703231548253,258.6258523550399,-1.1802943554700005,440.6644333218997
1703231548266,259.3606854550399,-1.1188619154700004,441.7785163218997
1703231548281,260.0744680550399,-1.0774182854700003,442.8840443218997
1703231548294,260.7636008550399,-1.0398537154700005,443.98005632189967
1703231548308,261.4318430550399,-0.9881997154700004,445.0735263218997
1703231548322,262.08267145504,-0.9073271754700004,446.1694633218997
1703231548336,262.72132745503995,-0.7883718754700003,447.2711753218997
1703231548349,263.35314625504,-0.6266151754700003,448.3787273218997
1703231548364,263.98053495504,-0.4223806754700003,449.4910913218997
1703231548378,264.60436715503994,-0.1869379754700003,450.6092823218997
1703231548391,265.22606245503994,0.0621607245299996,451.7311813218997
1703231548405,265.8479093550399,0.3100163245299996,452.8557063218997
1703231548419,266.4711728550399,0.5428542245299997,453.9822833218997
1703231548433,267.0960597550399,0.7503611245299997,455.1110923218997
1703231548447,267.7221520550399,0.9233266245299996,456.2421173218997
1703231548461,268.3497489550399,1.0538196245299998,457.37557932189975
1703231548475,268.9790243550399,1.1400494845299998,458.51178732189976
1703231548488,269.6099031550399,1.1815973745299997,459.6521763218998
1703231548502,270.2426041550399,1.1789077785299995,460.7975353218998
1703231548517,270.8774730550399,1.1337272985299998,461.9479983218998
1703231548530,271.5148078550399,1.0468662285299997,463.1027603218998
1703231548544,272.1535096550399,0.9229997285299996,464.2610573218998
1703231548558,272.7914725550399,0.7646507285299997,465.4238723218998
1703231548572,273.4275304550399,0.5800706285299997,466.59258532189983
1703231548585,274.0606477550399,0.3778513285299997,467.76875832189984
1703231548600,274.6908021550399,0.1644952285299997,468.95393932189984
1703231548614,275.3169994550399,-0.0520001714700003,470.1491363218999
1703231548628,275.9378249550399,-0.2632652714700003,471.3552493218999
1703231548643,276.5526549550399,-0.4618260714700003,472.5733833218999
1703231548655,277.1611251550399,-0.6465063714700003,473.8019253218999
1703231548669,277.7631783550399,-0.8194104714700003,475.0369433218999
1703231548683,278.3590132550399,-0.9814359714700004,476.2734643218999
1703231548697,278.9495447550399,-1.1272500714700002,477.5075613218999
1703231548712,279.5350292550399,-1.2531221714700005,478.7346773219
1703231548725,280.11639035503987,-1.3486709514700004,479.95313632189993
1703231548739,280.6977928550399,-1.3798497914700003,481.1666823219
1703231548753,281.2890823550399,-1.3425806614700002,482.3841373218999
1703231548766,281.8945423550399,-1.2749185214700005,483.6069133218999
1703231548781,282.5056862550399,-1.2055328114700004,484.8188463218999
1703231548795,283.1214779550399,-1.1326376614700004,486.0189483218999
1703231548808,283.7435901550399,-1.0488628814700005,487.2090383218999
1703231548821,284.3744505550399,-0.9406654814700004,488.3902523219
1703231548836,285.0171300550399,-0.8011407814700005,489.5612783218999
1703231548850,285.6714622550399,-0.6344446814700004,490.71912132189993
1703231548864,286.3352785550399,-0.4466697814700004,491.8575653218999
1703231548878,287.0049349550399,-0.2454079814700004,492.9766483218999
1703231548891,287.6788791550399,-0.0285197814700004,494.0801483218999
1703231548906,288.3568472550399,0.2039996185299995,495.1746383218999
1703231548919,289.0377136550399,0.4403754185299995,496.2647083219
1703231548933,289.7193710550399,0.6642191185299995,497.35101232189993
1703231548947,290.4008064550399,0.8610207185299995,498.4337793218999
1703231548962,291.0816940550399,1.0193212185299996,499.5141673219
1703231548975,291.7618650550399,1.1350412185299996,500.5930583219
1703231548989,292.4417838550399,1.2064831585299995,501.6712083219
1703231549002,293.1227131550399,1.2357467685299997,502.7497303219
1703231549017,293.8057256550399,1.2240523485299997,503.83020732189993
1703231549031,294.4912918550399,1.1761354885299995,504.9122923219
1703231549044,295.1800187550399,1.0951430885299998,505.9953933219
1703231549058,295.87348665503987,0.9860933885299996,507.07894832189993
1703231549072,296.5734738550399,0.8563329885299997,508.1623093219
1703231549086,297.2807975550399,0.7135806885299998,509.2460923219
1703231549100,297.9943108550399,0.5610205885299998,510.33038732189993
1703231549115,298.7133551550399,0.3982489885299998,511.4143083218999
1703231549128,299.4377235550399,0.2270576885299998,512.4963593219
1703231549142,300.1690481550399,0.0527230885299997,513.5762333219
1703231549156,300.9084097550399,-0.1175396114700002,514.6538393218999
1703231549169,301.65559745503987,-0.2780757114700002,515.7292183218999
1703231549183,302.4095782550399,-0.4258872114700002,516.8005323218999
1703231549197,303.1678455550399,-0.5637055114700003,517.8652953218999
1703231549211,303.9270601550399,-0.6932760114700003,518.9207163218999
1703231549225,304.6834130550399,-0.8139560114700003,519.9641863218999
1703231549239,305.4336518550399,-0.9264899114700004,520.9949193218999
1703231549253,306.1786698550399,-1.0035084914700003,522.0196163218999
1703231549267,306.92205345504,-1.0039171799700004,523.0483603218998
1703231549281,307.6684572550399,-0.9445140099700003,524.0970593218999
1703231549295,308.40937775503994,-0.8687880399700004,525.1554083218999
1703231549308,309.1332687550399,-0.8049598399700004,526.2046483219
1703231549322,309.8362951550399,-0.7620179399700004,527.2424753219
1703231549336,310.5162465550399,-0.7274369799700005,528.2707373219
1703231549352,311.1695399550399,-0.6794082099700005,529.2916803219
1703231549364,311.8007275550399,-0.6011643899700005,530.3127293219
1703231549378,312.4156473550399,-0.4824364899700005,531.3386753218999
1703231549392,313.0193326550399,-0.3223835899700005,532.3697313219
1703231549406,313.6141824550399,-0.1219938899700005,533.4024963219
1703231549419,314.2016987550399,0.1089542100299994,534.4368373219
1703231549433,314.7830740550399,0.3524401100299994,535.4711533219
1703231549448,315.3593248550399,0.5912665100299994,536.5035953219
1703231549461,315.9316057550399,0.8094366100299994,537.5330133219
1703231549475,316.50117705503993,0.9951521100299996,538.5587753218999
1703231549488,317.06878555503994,1.1377925100299997,539.5810743218999
1703231549503,317.63475385503995,1.2354811000299994,540.6003573218999
1703231549517,318.20095545503995,1.2868391700299997,541.6180853218999
1703231549531,318.76842965503994,1.2983540500299997,542.6367273218999
1703231549545,319.3386657550399,1.2753467100299996,543.6586923218999
1703231549558,319.9120664550399,1.2220208800299996,544.6864903218999
1703231549572,320.4882321550399,1.1405193800299998,545.7201883218999
1703231549586,321.0657506550399,1.0309412800299995,546.7592583218999
1703231549600,321.6436370550399,0.8939632800299997,547.8031663218999
1703231549615,322.2217833550399,0.7335203800299996,548.8513123218999
1703231549628,322.8006953550399,0.5544069800299997,549.9044663218998
1703231549642,323.37960215503995,0.3645627800299996,550.9628973218998
1703231549656,323.95771975503993,0.1697710800299996,552.0270003218999
1703231549669,324.5342868550399,-0.0252879199700003,553.0980993218999
1703231549683,325.1091036550399,-0.2144410199700003,554.1774243218999
1703231549698,325.68290545504,-0.3926287199700004,555.2659283218999
1703231549711,326.2567619550399,-0.5553526199700004,556.3637023218998
1703231549724,326.83079815504,-0.7044721199700004,557.4683173218998
1703231549739,327.40395835503995,-0.8409274199700003,558.5789013218998
1703231549753,327.97545885504,-0.9626109199700004,559.6924103218998
1703231549767,328.54435315504,-1.0710794199700004,560.8029533218998
1703231549781,329.10944855504,-1.1638116599700004,561.9029723218998
1703231549794,329.67400135504,-1.2145337299700003,562.9927233218998
1703231549808,330.24339305504,-1.2036997999700003,564.0771183218998
1703231549822,330.82500115504,-1.1519726999700004,565.1647513218998
1703231549836,331.41346265503995,-1.0979591799700004,566.2470943218998
1703231549850,332.00503425504,-1.0475886699700003,567.3196353218998
1703231549864,332.60076755504,-0.9833869299700004,568.3823973218998
1703231549878,333.20560895504,-0.8987057499700003,569.4367713218999
1703231549892,333.81954015504,-0.7962439499700003,570.4793163218999
1703231549906,334.44005155504,-0.6834266499700002,571.5051413218999
1703231549919,335.06416915504,-0.5652424499700003,572.5093623219
1703231549933,335.68977245504,-0.4434358499700003,573.4914448219
1703231549947,336.31627285504,-0.3117112499700003,574.4531385219
1703231549962,336.94331845504,-0.1614046499700003,575.4015296219
1703231549976,337.57060815504,0.0051577500299996,576.3428783219
1703231549989,338.19582235504,0.1733477500299997,577.2785801219
1703231550003,338.81754175504,0.3287032500299996,578.2084889219
1703231550017,339.43590715504,0.4621739500299996,579.1346791218999
1703231550030,340.05153745504003,0.5698624500299997,580.0596605218999
1703231550046,340.66575245504004,0.6492508900299997,580.9854916218999
1703231550058,341.28047825504,0.7003622100299997,581.9138705218999
1703231550072,341.89676085504,0.7217026300299997,582.8462818218999
1703231550086,342.51552605504,0.7110580000299996,583.7839348218998
1703231550100,343.13713385504,0.6707966900299996,584.7262578218998
1703231550114,343.76277825504,0.6034546800299997,585.6724087218998
1703231550130,344.39455345503995,0.5131186200299998,586.6221963218999
1703231550142,345.03365915504,0.4068153200299997,587.5747474218999
1703231550156,345.68073625504,0.2882145200299997,588.5288025218999
1703231550170,346.33559965504,0.1588727200299997,589.4830505218999
1703231550183,346.99745175503995,0.0211461200299997,590.4361054218999
1703231550197,347.66669785504,-0.1218071799700002,591.3878542218999
1703231550211,348.34472135503995,-0.2653930799700003,592.3384108219
1703231550224,349.03349725503995,-0.4053839799700003,593.2873173219
1703231550238,349.73292935504,-0.5383414799700004,594.2340637219
1703231550253,350.44269125504,-0.6626652799700004,595.1768129219
1703231550267,351.15985155503995,-0.7818851799700004,596.1143501219
1703231550281,351.8829800550399,-0.8962155799700005,597.0454338219
1703231550295,352.61115555503994,-1.0020021799700003,597.9692152219001
1703231550308,353.34171895503994,-1.0972991799700005,598.8851257219001
1703231550323,354.07005565503994,-1.1839985799700006,599.7879540219001
1703231550336,354.7945159550399,-1.2538243599700003,600.6779754219001
1703231550350,355.5202421550399,-1.2670494499700005,601.5626208219
1703231550364,356.2548825550399,-1.2068752699700005,602.4511473219001
1703231550379,356.9987248550399,-1.1040159699700005,603.3533528219001
1703231550392,357.7366545550399,-0.9876031699700004,604.2545993219001
1703231550405,358.4607160550399,-0.8870909699700005,605.1447851219001
1703231550419,359.1682526550399,-0.8156603299700005,606.0201576219001
1703231550433,359.8539382550399,-0.7706774799700005,606.8759012219001
1703231550448,360.5179494550399,-0.7383505999700004,607.7145133219001
1703231550462,361.1630149550399,-0.7016485899700005,608.5413439219001
1703231550475,361.7952364550399,-0.6425323999700004,609.3615896219001
1703231550489,362.4222110550399,-0.5491530899700005,610.1806226219
1703231550504,363.0475058550399,-0.4221201899700004,610.9995888219
1703231550517,363.6690260550399,-0.2707463899700004,611.8153328219
1703231550530,364.28490585504,-0.1088295899700004,612.6250740219
1703231550544,364.89507035503993,0.0520506100299995,613.4287917219
1703231550558,365.49991635504,0.2044028100299995,614.2258114219
1703231550572,366.1010300550399,0.3435015100299995,615.0162229219
1703231550585,366.7001187550399,0.4670801100299995,615.8011876219
1703231550599,367.2989494550399,0.5730880100299995,616.5824034219
1703231550613,367.8993545550399,0.6589747300299995,617.3612072219
1703231550628,368.5020392550399,0.7239833900299995,618.1380479219
1703231550641,369.1083662550399,0.7658659800299994,618.9131550219
1703231550654,369.7192645550399,0.7813957900299994,619.6872553219
1703231550668,370.3348316550399,0.7723830540299994,620.4609716219001
1703231550682,370.9558169550399,0.7365702640299994,621.2347357219
1703231550696,371.5817692550399,0.6759687340299994,622.0093176219001
1703231550711,372.2110262550399,0.5936504140299994,622.7857189219001
1703231550725,372.8422750550399,0.4948805740299994,623.5645658219
1703231550739,373.4749017550399,0.3839396740299994,624.3471315219
1703231550753,374.1080993550399,0.2637379740299994,625.1342158218999
1703231550767,374.7405869550399,0.1345559740299994,625.9267056218999
1703231550781,375.3707407550399,-0.0029699259700005,626.7246755218999
1703231550795,375.9980146550399,-0.1454019259700005,627.5293503219
1703231550808,376.6238498550399,-0.2870026259700006,628.3410557219
1703231550822,377.2507245550398,-0.4228617259700006,629.1603232219001
1703231550837,377.8800643550399,-0.5505175259700006,629.9877973219001
1703231550850,378.51254665503984,-0.6691723259700006,630.8247879219001
1703231550864,379.1481538550398,-0.7792175259700006,631.6710903219001
1703231550878,379.78703785503984,-0.8815647259700006,632.5258688219001
1703231550892,380.42956645503983,-0.9758445359700004,633.3879127219001
1703231550905,381.0757429550399,-1.0630476259700006,634.2553734219001
1703231550919,381.72451125503983,-1.146011065970001,635.1252202219001
1703231550933,382.3742711550398,-1.228653705970001,635.9933494219001
1703231550947,383.0233280550398,-1.315333645970001,636.8552140219001
1703231550961,383.6763623550398,-1.3917614459700007,637.7101413219001
1703231550975,384.3423345550398,-1.4180094859700008,638.5589511219001
1703231550993,385.0310160550398,-1.3931247059700007,639.4030257219001
1703231551003,385.7439834550398,-1.3449863159700006,640.2434506219001
1703231551016,386.46825025503983,-1.2948107059700007,641.0701910219001
1703231551030,387.2035115550398,-1.2549884359700008,641.8771750219001
1703231551044,387.9525859550398,-1.2147993859700008,642.6594652219002
1703231551058,388.7151901550398,-1.1574184459700008,643.4132397219001
1703231551073,389.49402215503983,-1.0719334459700007,644.1362283219001
1703231551086,390.2861285550399,-0.9599775459700008,644.8260152219001
1703231551100,391.0861932550399,-0.8316686459700007,645.4787113219
1703231551114,391.8884536550399,-0.6959202459700007,646.0942373219001
1703231551128,392.6899895550399,-0.5547462459700007,646.6769606219001
1703231551141,393.4933187550399,-0.4019604459700007,647.2324959219001
1703231551155,394.3017379550399,-0.2315549459700007,647.7648445219
1703231551169,395.1159983550399,-0.0521107459700007,648.2782642219
1703231551183,395.9322721550399,0.1226548540299992,648.7738398219001
1703231551197,396.7466300550399,0.2791541540299993,649.2542718219
1703231551211,397.5570903550399,0.4076441540299993,649.7221504219
1703231551226,398.3630787550399,0.5029338940299993,650.1799171219
1703231551239,399.1653494550399,0.5622185240299993,650.6282456219
1703231551252,399.9667590550399,0.5888957640299993,651.0675828218999
1703231551267,400.7708049550399,0.5871939920299993,651.4977732218999
1703231551281,401.5799322550399,0.5605035220299993,651.9171705219
1703231551295,402.3965591550399,0.5136935920299993,652.3245841219
1703231551308,403.2216196550399,0.4485303420299993,652.7194991219
1703231551322,404.0562191550399,0.3675128120299993,653.1019608219
1703231551336,404.8996781550399,0.2746455920299993,653.4731547219
1703231551350,405.7520879550399,0.1728791920299992,653.8311264219
1703231551364,406.6136333550399,0.0647171920299992,654.1730801218999
1703231551379,407.4838418550399,-0.0485117079700007,654.4968087218999
1703231551392,408.3615906550399,-0.1659174079700007,654.8046283218999
1703231551406,409.2466088550399,-0.2866816079700007,655.0973408218999
1703231551419,410.1392660550399,-0.4082990079700007,655.3741134218999
1703231551434,411.0403274550399,-0.5272381079700007,655.6312354218999
1703231551448,411.9498223550399,-0.6416505079700007,655.8696550218999
1703231551462,412.8676312550399,-0.7501923079700007,656.0916417218999
1703231551476,413.7944599550399,-0.8505707079700007,656.2979517219
1703231551489,414.7307071550399,-0.9411558679700008,656.4901900218999
1703231551503,415.6760394550399,-1.0205297679700007,656.6689664218999
1703231551517,416.62780495504,-1.0893929079700009,656.8357511218999
1703231551531,417.58203345504,-1.1516629379700007,656.9927883218999
1703231551545,418.5380350550399,-1.2013207879700007,657.1438265218999
1703231551559,419.5072921550399,-1.1982057879700008,657.2919964218999
1703231551573,420.4953315550399,-1.1244599079700008,657.4327245218999
1703231551586,421.5075975550399,-1.0141152079700009,657.5646216218998
1703231551600,422.5188755550399,-0.9054269079700008,657.6926029218998
1703231551614,423.50956645503993,-0.831109667970001,657.8186167218998
1703231551627,424.47532125504,-0.8075204979700009,657.9428933218999
1703231551641,425.41324885504,-0.8221355079700009,658.0654039218999
1703231551655,426.32425085504,-0.8528757579700009,658.1841544219
1703231551669,427.21508165504,-0.8748314279700009,658.2975376219
1703231551683,428.09522275504,-0.8622789479700009,658.4041610219
1703231551697,428.97558445504,-0.806460717970001,658.5041365219
1703231551712,429.85418125504,-0.710510787970001,658.5985448819
1703231551725,430.72368685504,-0.5895454879700011,658.6882754819001
1703231551739,431.58326525504,-0.456698687970001,658.7708963319001
1703231551753,432.43430725504,-0.3196375879700011,658.8439939119
1703231551768,433.28092455504,-0.1841479879700011,658.9060996719
1703231551780,434.12749635504,-0.054950987970001,658.9577204119
1703231551795,434.97747685504,0.0632665120299989,658.9996423619
1703231551809,435.83405405504,0.1646076120299989,659.0332942319
1703231551822,436.69820445504,0.2455810020299989,659.0613930318999
1703231551836,437.56955275504,0.3019541020299989,659.0854647319
1703231551851,438.44812365504,0.3308069320299989,659.1060766618999
1703231551864,439.33377325504006,0.3340629000299989,659.1216307919
1703231551878,440.22791555504006,0.3144054400299989,659.1288745369
1703231551892,441.13100625504006,0.2757657700299988,659.1262954888999
1703231551906,442.04182445504006,0.2188796600299988,659.1146202788999
1703231551920,442.95903065504007,0.1435207300299988,659.0972381588999
1703231551933,443.8817054550401,0.0526236300299988,659.0779642089
1703231551947,444.8101855550401,-0.0493428699700011,659.0585396989
1703231551961,445.74545485504007,-0.1589930699700011,659.0384005889
1703231551975,446.68744545504006,-0.2735057699700011,659.0166154289
1703231551989,447.6361509550401,-0.392155669970001,658.9927982488999
1703231552004,448.5907534550401,-0.515282469970001,658.9677048389
1703231552017,449.5512771550401,-0.641513969970001,658.9423870889
1703231552031,450.5179848550401,-0.767974469970001,658.9176229689
1703231552045,451.4905550550401,-0.892057769970001,658.8934478589
1703231552058,452.4679290550401,-1.012674169970001,658.8699939789
1703231552072,453.44770515504007,-1.131084269970001,658.8471283589
1703231552086,454.42780735504,-1.248206869970001,658.8249171989
1703231552100,455.40777635504,-1.3603277699700012,658.8032119789001
1703231552114,456.38803715504,-1.457348899970001,658.7796123789001
1703231552128,457.37149855504,-1.520146349970001,658.7495006389
1703231552141,458.36238725504006,-1.527481469970001,658.7068483089
1703231552155,459.3599988550401,-1.482189619970001,658.6479514789
1703231552169,460.3565995550401,-1.410805499970001,658.5759813389001
1703231552184,461.34446095504006,-1.328925059970001,658.4944659389001
1703231552197,462.3185778550401,-1.2414399299700012,658.4015776889001
1703231552211,463.27763695504007,-1.1478694999700012,658.2935902889002
1703231552225,464.2200285550401,-1.0406898999700012,658.1686411889002
1703231552240,465.1469721550401,-0.9118514999700011,658.0238381889002
1703231552253,466.0601812550401,-0.7606293999700011,657.8573297889002
1703231552266,466.9581935550401,-0.5923130999700011,657.6681877889002
1703231552281,467.8384947550401,-0.4156929999700011,657.4579365889002
1703231552295,468.70255965504015,-0.2384131999700011,657.2308092889002
1703231552308,469.55151625504016,-0.0675409999700011,656.9882764889002
1703231552322,470.38908085504016,0.0945875000299988,656.7324860889001
1703231552336,471.21555555504017,0.2447631000299988,656.4633574889001
1703231552350,472.03366575504015,0.3804736000299988,656.1823162889001
1703231552364,472.84458595504015,0.4985906000299989,655.8906077889001
1703231552378,473.64824385504016,0.5953824400299988,655.5888999889
1703231552392,474.44485355504014,0.6671232500299988,655.2765760889
1703231552405,475.2351307550401,0.7137317500299989,654.9537895889
1703231552419,476.01992895504014,0.7361748200299989,654.6202963889
1703231552433,476.8000124550401,0.736280571729999,654.2763081889
1703231552447,477.57485235504015,0.714520041729999,653.9215120888999
1703231552461,478.34473715504015,0.673879651729999,653.5564581888999
1703231552477,479.10869595504016,0.616447491729999,653.1797320888999
1703231552489,479.8670887550402,0.5459239717299991,652.7908487888999
1703231552503,480.6193868550402,0.465247531729999,652.3887286888998
1703231552517,481.3639355550402,0.376662821729999,651.9721024888998
1703231552532,482.0995041550402,0.282502031729999,651.5401075888999
1703231552545,482.8247742550402,0.184662051729999,651.0909436888999
1703231552558,483.5396902550402,0.083582751729999,650.6241322888999
1703231552572,484.2436843550402,-0.0215711482700009,650.1390783888999
1703231552586,484.9362794550402,-0.1321985482700009,649.6366318888998
1703231552600,485.6179217550402,-0.2477440482700009,649.1177678888998
1703231552614,486.2890149550402,-0.3654311482700009,648.5827522888999
1703231552628,486.9497169550402,-0.4814373482700009,648.0314312888999
1703231552642,487.59975785504025,-0.593442748270001,647.4638144888999
1703231552656,488.2379820550403,-0.699880748270001,646.8784256888998
1703231552669,488.86286465504026,-0.798670258270001,646.2746853888998
1703231552684,489.47224015504025,-0.888349198270001,645.6522987888998
1703231552697,490.0653451550402,-0.970123518270001,645.0163512888997
1703231552712,490.6416023550402,-1.0463052382700009,644.3734666888997
1703231552725,491.2020384550402,-1.117549468270001,643.7280413888997
1703231552739,491.7551271550402,-1.1600793582700009,643.0753082888997
1703231552753,492.3066660550402,-1.1342153582700008,642.4069831888997
1703231552767,492.8646865550402,-1.0494406582700009,641.7117675888998
1703231552782,493.4256727550402,-0.9484643582700006,641.0032294888997
1703231552795,493.97868425504026,-0.8605232382700007,640.3000714888997
1703231552809,494.5187719550403,-0.8068202882700006,639.6058447888997
1703231552822,495.0423516550403,-0.7863748082700006,638.9206677888998
1703231552836,495.5437126550403,-0.7847369162700006,638.2475462888998
1703231552850,496.0233801550403,-0.7878382802700007,637.5845291888998
1703231552865,496.4850559550403,-0.7792226752700007,636.9280944888998
1703231552879,496.9286632550403,-0.7453094952700007,636.2726349888998
1703231552892,497.3564375550403,-0.6810767252700007,635.6122104888998
1703231552906,497.76849765504033,-0.5836728952700008,634.9453425888997
1703231552920,498.1633491550404,-0.4600209952700008,634.2718198888997
1703231552933,498.53944295504033,-0.3244196952700008,633.5931780888997
1703231552947,498.89382305504034,-0.1905593952700008,632.9104513888997
1703231552961,499.2263446550404,-0.0666964952700008,632.2236389888997
1703231552975,499.5362091550404,0.0438732047299991,631.5309075888997
1703231552989,499.8245330550404,0.1404885147299991,630.8309648888998
1703231553003,500.0927903550404,0.2224015947299991,630.1234397888998
1703231553018,500.3416114550404,0.2871178447299992,629.4096092888998
1703231553031,500.5722695550404,0.3338704047299992,628.6903810888998
1703231553044,500.7846905550404,0.3632184447299992,627.9654726888998
1703231553059,500.9777069550404,0.3761605547299992,627.2334486888998
1703231553072,501.1543552550404,0.3758141577299992,626.4939894888997
1703231553086,501.3152225550404,0.3627999177299992,625.7464404888997
1703231553101,501.4635176550404,0.3398324577299992,624.9912870888996
1703231553115,501.6006925550404,0.3094181277299992,624.2274982888996
1703231553128,501.7292522550404,0.2754972277299992,623.4552387888996
1703231553142,501.8506948550404,0.2409232477299992,622.6730036888996
1703231553156,501.9658351550404,0.2076215677299992,621.8793742888996
1703231553169,502.0754899550404,0.1749124777299992,621.0746711888996
1703231553183,502.1804511550404,0.1394638177299992,620.2605533888997
1703231553197,502.2820200550404,0.0975666377299992,619.4385361888997
1703231553211,502.3815547950404,0.0470321977299992,618.6085401888996
1703231553225,502.4804309050404,-0.0122082222700007,617.7700392888996
1703231553239,502.5787171550404,-0.0784690722700007,616.9218927888996
1703231553254,502.6758009250404,-0.1497583322700007,616.0650803888997
1703231553267,502.7709799750404,-0.2264559222700007,615.2007372888996
1703231553281,502.8638061350404,-0.3108707622700007,614.3311206888997
1703231553294,502.9545661850404,-0.4041528322700007,613.4576669888996
1703231553308,503.0431215250404,-0.5077719322700007,612.5818069888996
1703231553322,503.1297288450404,-0.6211357322700007,611.7044370888997
1703231553336,503.2133922950404,-0.7435876322700008,610.8269794888997
1703231553350,503.2925021850404,-0.8736518322700008,609.9514200888997
1703231553364,503.3659726550404,-1.0054565322700006,609.0785462888997
1703231553378,503.4303233850404,-1.1189699322700006,608.2029987888997
1703231553392,503.4802510050404,-1.1857285422700006,607.3183319888997
1703231553407,503.5091657650405,-1.2068088422700003,606.4212362888996
1703231553419,503.5178626040404,-1.1939860022700006,605.5126327888996
1703231553433,503.5068825440404,-1.1602604722700007,604.6009623888996
1703231553447,503.4751023240405,-1.1126001322700008,603.6858593888995
1703231553461,503.41988185404045,-1.0439010322700009,602.7676264888995
1703231553475,503.3399354140405,-0.9526216722700008,601.8463405888995
1703231553490,503.23360731404046,-0.8379572722700008,600.9236537888995
1703231553503,503.1001692140405,-0.7029743722700008,600.0023194888995
1703231553517,502.93924981404047,-0.5517317722700008,599.0834128888995
1703231553530,502.7517562140405,-0.3887550722700008,598.1669212888995
1703231553545,502.5382712140405,-0.2207885722700008,597.2525697888996
1703231553559,502.3016468140405,-0.0550301722700008,596.3401948888995
1703231553574,502.0464046140405,0.1017483277299991,595.4302284888995
1703231553586,501.7760153140405,0.2424446277299991,594.5223788888995
1703231553600,501.4938633140405,0.3627731277299991,593.6163723888995
1703231553615,501.2028392140405,0.4586004877299992,592.7111839888995
1703231553628,500.9033109140405,0.5256278777299992,591.8054137888995
1703231553643,500.5942975140405,0.5641851577299992,590.8987564888995
1703231553656,500.2730502140405,0.5763022977299992,589.9909076888995
1703231553669,499.9374437140405,0.5662080477299992,589.0812189888995
1703231553684,499.5870266140405,0.5385120777299992,588.1684766888995
1703231553697,499.2228789140405,0.4989160477299992,587.2525579888995
1703231553711,498.8442904140405,0.4514173577299992,586.3342472888995
1703231553726,498.4510807140405,0.3974748177299992,585.4155919888996
1703231553740,498.0427068140405,0.3367580877299992,584.4979114888996
1703231553753,497.6183996140405,0.2699467077299992,583.5825382888996
1703231553767,497.1790693140405,0.1986701277299991,582.6694415888996
1703231553781,496.7244309140405,0.1245822877299991,581.7581137888997
1703231553795,496.2547442140405,0.0485211677299991,580.8483336888996
1703231553809,495.7700808140405,-0.0279613622700008,579.9392782888996
1703231553822,495.2695095140405,-0.1043381022700008,579.0312635888996
1703231553836,494.7523094140405,-0.1820992422700008,578.1254008888997
1703231553850,494.2190651140405,-0.2633156922700008,577.2225607888996
1703231553864,493.6708699140405,-0.3484860322700008,576.3238373888996
1703231553878,493.1088424140405,-0.4366371322700008,575.4301430888996
1703231553891,492.5327490140405,-0.5264071322700008,574.5433725888996
1703231553906,491.9450200140405,-0.6171192722700007,573.6654935888996
1703231553920,491.3504381140405,-0.7097943722700008,572.7978143888996
1703231553933,490.7493563140405,-0.7847989022700007,571.9312116888996
1703231553948,490.1343485140405,-0.7971787922700007,571.0541542888996
1703231553962,489.4980520140405,-0.7402569722700006,570.1618407888996
1703231553975,488.84530601404055,-0.6534926622700007,569.2552989888995
1703231553989,488.19477051404056,-0.5692427722700006,568.3516894888995
1703231554003,487.5571260140405,-0.5036513422700006,567.4541972888995
1703231554017,486.9362495140405,-0.4534491822700006,566.5607319888995
1703231554031,486.3351468140405,-0.4050011422700006,565.6708396888995
1703231554045,485.7490999140405,-0.3405217022700006,564.7791180888995
1703231554058,485.1740603140405,-0.2463345722700006,563.8822078888995
1703231554073,484.6066922140405,-0.1168445722700006,562.9773155888995
1703231554087,484.04755291404047,0.0449253277299993,562.0660323888995
1703231554100,483.49812101404046,0.2290372277299993,561.1524791888995
1703231554115,482.9582845140405,0.4233617277299993,560.2401745888995
1703231554128,482.4270481140405,0.6183467277299993,559.3316023888996
1703231554141,481.90098111404046,0.8082548277299993,558.4259780888996
1703231554156,481.3773842140405,0.9888679277299992,557.5221233888996
1703231554169,480.8538855140405,1.1544418277299993,556.6179648888996
1703231554183,480.3288855140405,1.2995751277299992,555.7115290888995
1703231554197,479.8015264140405,1.419378927729999,554.8008424888995
1703231554212,479.2702570140405,1.507376677729999,553.8833398888995
1703231554225,478.7346687140405,1.5622458577299991,552.9565028888995
1703231554239,478.19436371404055,1.5831603477299991,552.0182014888995
1703231554253,477.6493334140405,1.5697990277299991,551.0673801888995
1703231554267,477.0978433140405,1.5206928277299991,550.1052068888995
1703231554281,476.5380153140405,1.439226907729999,549.1342201888995
1703231554294,475.96968191404056,1.3292850077299991,548.1551083888994
1703231554308,475.3940641140406,1.195469507729999,547.1673001888994
1703231554322,474.8134657140406,1.039446007729999,546.1692611888994
1703231554336,474.2300227140406,0.8655991077299989,545.1603861888995
1703231554351,473.6443125140406,0.6783048077299989,544.1397261888994
1703231554364,473.0555840140406,0.4864838077299989,543.1069441888994
1703231554378,472.4633887140406,0.2980739077299988,542.0593411888995
1703231554392,471.8675327140406,0.1222835077299988,540.9942841888994
1703231554407,471.27035711404056,-0.0401868922700011,539.9135661888994
1703231554420,470.67457881404056,-0.1936702922700011,538.8201061888993
1703231554434,470.08274411404057,-0.3391093922700011,537.7180151888994
1703231554447,469.49521311404055,-0.4716383922700011,536.6100971888993
1703231554461,468.9125977140405,-0.5860079922700011,535.5001541888993
1703231554475,468.3359260140405,-0.6775170122700012,534.3933871888993
1703231554489,467.7594282140405,-0.7196275622700011,533.2860991888992
1703231554503,467.1755056140405,-0.6850720622700012,532.1756901888992
1703231554516,466.5770406140405,-0.6012349722700012,531.0583931888992
1703231554530,465.9726280140405,-0.5096997722700012,529.9491251888992
1703231554545,465.36806751404055,-0.4359105922700012,528.8630101888992
1703231554559,464.7596149140405,-0.3828200422700011,527.7988941888992
1703231554572,464.14413271404055,-0.3312283322700011,526.7539081888992
1703231554586,463.5191569140405,-0.2591476522700011,525.7241661888992
1703231554600,462.8802166140405,-0.1533982522700011,524.7047831888992
1703231554614,462.22747691404055,-0.0168520522700011,523.6941401888993
1703231554629,461.56642461404056,0.1383536477299988,522.6951624888993
1703231554643,460.9013075140406,0.3010090477299988,521.7085377888993
1703231554656,460.23118871404057,0.4670180477299989,520.7324914888993
1703231554669,459.5551013140406,0.6350522477299989,519.7641040888993
1703231554683,458.8734921140406,0.7994276477299989,518.7999258888993
1703231554697,458.1876945140406,0.9510226477299988,517.8371856888994
1703231554712,457.4988767140406,1.0812808477299989,516.8741851888993
1703231554725,456.8078066140406,1.183647747729999,515.9103760888993
1703231554740,456.1149113140406,1.2519632577299988,514.9455967888993
1703231554752,455.4206009140406,1.2852392677299989,513.9793678888992
1703231554766,454.7250662140406,1.2842099237299989,513.0106813888992
1703231554780,454.02762591404064,1.2514293337299989,512.0378629888992
1703231554794,453.3268676140406,1.1896399937299988,511.0600311888992
1703231554808,452.6214389140406,1.1013161337299988,510.0770966888992
1703231554823,451.9107218140406,0.9917482337299988,509.0887671888992
1703231554835,451.1939569140406,0.8658899337299988,508.0946078888992
1703231554849,450.4704763140406,0.7277445337299988,507.0954266888992
1703231554863,449.7389786140406,0.5802298337299988,506.0916706888992
1703231554877,448.9981160140406,0.4264474337299988,505.0849086888992
1703231554891,448.2465330140406,0.2677919337299988,504.0769646888992
1703231554905,447.4843619140406,0.1049685337299988,503.0690586888992
1703231554918,446.7120868140406,-0.0581274662700011,502.0608256888992
1703231554932,445.92969951404064,-0.2145625662700011,501.0508996888992
1703231554947,445.1372290140407,-0.3573319662700012,500.0387386888992
1703231554960,444.3361641140407,-0.4830424662700012,499.0249046888992
1703231554975,443.5298152140407,-0.5935406662700012,498.0099766888992
1703231554988,442.7211509140407,-0.6883432562700013,496.9947416888992
1703231555002,441.9126339140407,-0.7661800862700012,495.9809646888992
1703231555015,441.1078197140407,-0.8260256662700012,494.9721896888992
1703231555028,440.3074592140407,-0.8557856562700011,493.9640016888992
1703231555042,439.5074288140407,-0.8114260362700011,492.9464576888992
1703231555057,438.7029109140407,-0.7011234362700011,491.9114106888992
1703231555071,437.8982621140407,-0.578961736270001,490.8620596888992
1703231555085,437.1039878140407,-0.470957536270001,489.81615468889913
1703231555099,436.3188309140407,-0.388445466270001,488.7746876888991
1703231555113,435.5426587140407,-0.327694896270001,487.7357546888992
1703231555128,434.7791447140407,-0.271315176270001,486.6983266888992
1703231555141,434.0287744140407,-0.206699426270001,485.6586296888992
1703231555154,433.2932440140407,-0.127411426270001,484.6139356888992
1703231555168,432.5749938140407,-0.032764656270001,483.5655646888992
1703231555183,431.8750246140407,0.0800413437299989,482.5132136888992
1703231555197,431.1911859140407,0.218455943729999,481.4572346888992
1703231555210,430.5194212140407,0.382924043729999,480.3959336888992
1703231555224,429.8554869140407,0.563675243729999,479.3288176888992
1703231555238,429.1982637140407,0.745130843729999,478.2584046888993
1703231555252,428.5460383140407,0.911858443729999,477.1849626888993
1703231555265,427.8976010140407,1.053285243729999,476.1081496888992
1703231555280,427.2518688140407,1.1596034437299991,475.0278676888992
1703231555293,426.6078280140407,1.2275494137299992,473.9438816888992
1703231555308,425.9650413140407,1.2563430437299992,472.8554506888992
1703231555322,425.3225062140407,1.2453912737299992,471.7610186888992
1703231555335,424.6791273140407,1.1990776737299993,470.65912968889927
1703231555349,424.0342635140407,1.120282313729999,469.5485586888993
1703231555364,423.3889854140407,1.0111752137299994,468.4277906888993
1703231555377,422.7456269140407,0.8772822137299994,467.29696768889926
1703231555391,422.1052270140408,0.7241068137299994,466.1552906888992
1703231555405,421.4681511140407,0.5583864137299994,465.00197968889927
1703231555419,420.8344017140407,0.3858054137299994,463.83569168889926
1703231555433,420.20420731404073,0.2091512137299994,462.6567786888992
1703231555447,419.5792196140407,0.0301985137299994,461.46589568889925
1703231555460,418.9614331140407,-0.1476194862700005,460.2640096888993
1703231555474,418.3513313140407,-0.3176179862700006,459.0510806888993
1703231555488,417.7471827140407,-0.4736261862700006,457.82772068889926
1703231555502,417.1482860140407,-0.6115526862700007,456.5950196888992
1703231555516,416.5545976140407,-0.7315324862700007,455.3562306888993
1703231555530,415.9677746140407,-0.8355952862700007,454.1181936888992
1703231555544,415.3885348140407,-0.9250938762700008,452.8892166888992
1703231555558,414.8118006140408,-0.9721507962700008,451.6676086888992
1703231555572,414.2307086140408,-0.9485466562700008,450.4511376888992
1703231555586,413.6363093140407,-0.8810616262700006,449.2310336888992
1703231555600,413.0361393140407,-0.8047499362700006,448.0180626888993
1703231555613,412.4354072140407,-0.7324491562700006,446.8205496888992
1703231555627,411.8285014140407,-0.6578001562700007,445.6341406888992
1703231555641,411.2101289140407,-0.5643947962700007,444.4601456888992
1703231555655,410.5753722140407,-0.4411643962700006,443.2964186888992
1703231555669,409.9248180140407,-0.2907872962700006,442.1439186888993
1703231555683,409.2624033140407,-0.1226935962700006,441.0068776888992
1703231555696,408.5914473140407,0.0534120037299993,439.8898886888993
1703231555710,407.9124814140407,0.2368358037299993,438.7930856888992
1703231555724,407.2244155140407,0.4305794037299993,437.7121796888992
1703231555738,406.5282409140407,0.6290349037299994,436.6402896888992
1703231555753,405.8264494140407,0.8194569037299994,435.5746296888992
1703231555766,405.1216638140407,0.9866219037299994,434.5140066888992
1703231555780,404.4154648140407,1.1203989037299993,433.4566506888992
1703231555794,403.7085320140407,1.2153490437299992,432.4009176888992
1703231555808,403.00081671404064,1.2698343137299992,431.3444506888992
1703231555822,402.29147341404064,1.2839004037299993,430.2848146888992
1703231555836,401.5793840140406,1.2637033837299994,429.2198766888992
1703231555850,400.8633431140406,1.2145132837299994,428.1481056888992
1703231555863,400.14264681404063,1.1394988137299995,427.0692536888992
1703231555877,399.41657121404063,1.0387112137299994,425.9845106888992
1703231555891,398.6852790140407,0.9147446137299994,424.8965226888992
1703231555905,397.9489809140407,0.7689450137299993,423.8072456888992
1703231555919,397.20707401404064,0.6058499137299993,422.7170356888992
1703231555933,396.4594068140406,0.4312813137299993,421.6259886888992
1703231555947,395.70486341404063,0.2516482137299993,420.5347626888992
1703231555962,394.9415295140406,0.0732751137299993,419.4439826888992
1703231555975,394.16776271404063,-0.0987370862700006,418.3546626888992
1703231555989,393.3823534140406,-0.2600059862700006,417.2668346888992
1703231556002,392.5852336140406,-0.4065205862700006,416.1809406888992
1703231556016,391.7774535140406,-0.5384631862700007,415.0979696888992
1703231556030,390.9609878140406,-0.6555698862700007,414.0186486888993
1703231556044,390.1383089140406,-0.7555139262700007,412.94457368889925
1703231556058,389.3120843140406,-0.8381065962700007,411.8769466888992
1703231556072,388.4860453140406,-0.8998639462700008,410.8163846888992
1703231556086,387.6563273140406,-0.8986149292700008,409.7532256888993
1703231556099,386.8183947140406,-0.8115117592700007,408.68180668889926
1703231556113,385.9686786140406,-0.6799650592700007,407.59073068889927
1703231556128,385.1256287140406,-0.5483093592700008,406.5000306888992
1703231556142,384.2970574140406,-0.4446693592700008,405.4184836888992
1703231556155,383.4835048140406,-0.3761996592700007,404.34401968889927
1703231556169,382.6883492140406,-0.3270521792700007,403.2762616888992
1703231556183,381.9121272140406,-0.2774025692700007,402.21193068889926
1703231556196,381.1522250140406,-0.2111210392700007,401.1446016888993
1703231556211,380.4070816140406,-0.1156302592700007,400.0702156888993
1703231556225,379.6739231140406,0.0130012407299992,398.9858086888993
1703231556238,378.95370401404057,0.1769286407299992,397.8944046888993
1703231556252,378.24471331404055,0.3683585407299993,396.7988176888993
1703231556266,377.5434987140405,0.5718157407299993,395.7027976888992
1703231556281,376.8475503140405,0.7732604407299993,394.6088246888992
1703231556295,376.1546930140405,0.9610976407299994,393.5161966888992
1703231556309,375.4624067140405,1.1280305407299993,392.4231456888992
1703231556322,374.7688581140405,1.267698340729999,391.3275786888992
1703231556336,374.07179731404057,1.3733141407299994,390.2278766888992
1703231556350,373.37063081404057,1.4405675707299994,389.12225668889926
1703231556363,372.6671757140406,1.4688405707299994,388.0100016888993
1703231556378,371.96359961404056,1.4589566527299993,386.8906536888993
1703231556392,371.2595752140406,1.4097073527299993,385.7632066888992
1703231556404,370.5548723140406,1.3237025827299993,384.6286106888992
1703231556418,369.8497011140406,1.2038520827299992,383.48621868889927
1703231556432,369.1441867140406,1.0556373827299992,382.3350056888993
1703231556446,368.43810021404056,0.8867176827299992,381.17473668889926
1703231556461,367.73053641404056,0.7044270827299992,380.00470768889926
1703231556475,367.02200231404055,0.5148051827299992,378.8247316888993
1703231556488,366.3139457140405,0.3206074827299991,377.6348476888992
1703231556502,365.60966601404056,0.1247056827299991,376.4357716888993
1703231556515,364.9108872140405,-0.0688450172700008,375.2272206888993
1703231556530,364.2170536140405,-0.2524012172700008,374.0100706888993
1703231556544,363.5266523140405,-0.4198534172700008,372.7860526888993
1703231556558,362.8379356140405,-0.5662435172700008,371.5566376888992
1703231556571,362.1513507140405,-0.6905677172700008,370.3252376888992
1703231556585,361.4672764140405,-0.7844955672700008,369.0939786888992
1703231556598,360.7845414140405,-0.8212820672700007,367.8623486888992
1703231556614,360.09744021404055,-0.7813393572700007,366.6268366888992
1703231556627,359.40008791404057,-0.6858707672700007,365.3859076888992
1703231556640,358.69963431404057,-0.5789099672700008,364.1530656888992
1703231556653,358.00092961404056,-0.4844095372700008,362.9378636888992
1703231556668,357.30155151404057,-0.3938728772700008,361.7384416888992
1703231556682,356.5972389140406,-0.2881607772700008,360.5556886888992
1703231556697,355.8824822140406,-0.1557304772700007,359.3886666888992
1703231556710,355.1550183140406,0.0028438227299992,358.2381816888992
1703231556724,354.4194505140406,0.1762944227299992,357.1067686888992
1703231556737,353.6794728140406,0.3588707227299992,355.9944936888992
1703231556752,352.9352539140406,0.5545868227299993,354.8969936888992
1703231556767,352.18649791404056,0.7636084227299993,353.8074026888992
1703231556780,351.4337721140405,0.9733051227299994,352.7226706888992
1703231556794,350.67929711404054,1.1674089227299993,351.6420146888992
1703231556808,349.92285971404056,1.3345803227299993,350.56316568889923
1703231556821,349.1653015140405,1.4693879227299993,349.48350668889924
1703231556835,348.40582511404057,1.5711204227299993,348.40118468889926
1703231556850,347.64381271404056,1.637733972729999,347.3149026888993
1703231556863,346.87850121404057,1.6682326027299994,346.2249086888993
1703231556878,346.1102693140406,1.6626017007299994,345.1312016888993
1703231556891,345.3382716140406,1.6204671607299994,344.0334266888993
1703231556905,344.5623609140406,1.5475302107299993,342.93277368889926
1703231556919,343.7796582140406,1.4448492107299993,341.8296056888993
1703231556933,342.9884305140406,1.3194456107299992,340.72446668889927
1703231556947,342.1873592140406,1.1780444107299992,339.6175896888993
1703231556961,341.37695811404063,1.0240390107299993,338.50889668889926
1703231556975,340.55814941404066,0.8586272107299993,337.3996276888993
1703231556988,339.73057711404067,0.6840008107299993,336.29163368889925
1703231557003,338.8953915140407,0.5049110107299993,335.18768768889925
1703231557016,338.05317721404066,0.3251662107299993,334.08957668889923
1703231557030,337.20497301404066,0.1485539107299993,332.99888068889925
1703231557044,336.35198941404064,-0.0224913892700007,331.91663468889925
1703231557058,335.49558591404065,-0.1831617892700007,330.84306468889923
1703231557072,334.6365834140407,-0.3265788892700006,329.77851468889924
1703231557086,333.7775852140407,-0.4449348892700007,328.7253226888992
1703231557099,332.9215023140407,-0.5291302092700007,327.6810896888992
1703231557113,332.0650565140407,-0.5344723932700006,326.6340346888992
1703231557127,331.2029518140407,-0.4567981132700006,325.5754096888992
1703231557141,330.3364799140407,-0.3408324132700006,324.4999516888992
1703231557155,329.4804352140407,-0.2292917132700006,323.42960468889913
1703231557169,328.64003021404073,-0.1458251432700006,322.36901368889914
1703231557182,327.81826991404074,-0.0891872732700006,321.3158876888991
1703231557196,327.02089511404074,-0.0390130732700006,320.27096368889914
1703231557211,326.24779561404074,0.0277329767299993,319.2272316888992
1703231557225,325.4945358140407,0.1291878767299993,318.17626968889914
1703231557239,324.75523701404074,0.2699091767299993,317.1122736888992
1703231557252,324.02790271404075,0.4503847767299994,316.0381286888992
1703231557266,323.3123749140408,0.6597111767299993,314.9598656888992
1703231557280,322.6074326140407,0.8799416767299993,313.8812196888992
1703231557294,321.9104748140407,1.0957305767299994,312.8053466888992
1703231557308,321.2174242140407,1.2957001767299994,311.7317566888992
1703231557322,320.5247868140407,1.4723785767299993,310.6589346888992
1703231557336,319.8296301140407,1.6190782767299994,309.5849096888992
1703231557349,319.1295344140407,1.7289375767299997,308.5063946888992
1703231557364,318.4241501140407,1.8007501767299994,307.4217956888992
1703231557377,317.7136937140407,1.82906361673,306.3290236888992
1703231557391,316.9987937140407,1.81574390673,305.2277446888992
1703231557405,316.2798711140407,1.7635847867299994,304.1174706888992
1703231557418,315.5560426140407,1.6758761467299994,302.99770368889915
1703231557432,314.8269424140407,1.5541406467299994,301.8676726888992
1703231557447,314.0936929140407,1.4001236467299991,300.7277906888992
1703231557461,313.35987271404065,1.2180401467299993,299.5789026888992
1703231557475,312.62786001404066,1.0103333467299993,298.4209856888992
1703231557488,311.8985867140407,0.7849817467299993,297.2506036888992
1703231557502,311.1717780140407,0.5555025467299993,296.0679846888992
1703231557516,310.4469424140407,0.3320794467299993,294.87045068889915
1703231557530,309.72445031404067,0.1196293467299993,293.65916068889914
1703231557544,309.00557861404064,-0.0778967532700006,292.4353976888991
1703231557558,308.2908514140406,-0.2580258532700006,291.2018206888991
1703231557572,307.57984651404064,-0.4179518532700007,289.9600306888991
1703231557586,306.87113951404064,-0.5554723532700007,288.7124386888991
1703231557599,306.1647932140406,-0.6711012532700007,287.4631246888991
1703231557613,305.4626280140406,-0.7673934432700007,286.2203996888991
1703231557628,304.7606848140406,-0.8203734132700007,284.9822356888991
1703231557641,304.05277431404056,-0.7941412532700007,283.7447046888991
1703231557655,303.3278962140405,-0.7195602232700007,282.4957676888991
1703231557668,302.5926436140405,-0.6429639332700007,281.2451496888991
1703231557683,301.8550243140405,-0.5757041432700006,280.0063206888991
1703231557697,301.1109447140405,-0.5063218032700006,278.7745746888991
1703231557711,300.3593721140405,-0.4267883632700006,277.5538926888991
1703231557725,299.5979471140405,-0.3318622632700006,276.34578368889913
1703231557738,298.82706441404054,-0.2202833632700006,275.1528706888992
1703231557752,298.04928911404056,-0.0909857632700006,273.97802768889915
1703231557765,297.26770721404057,0.0537021367299993,272.82074068889915
1703231557780,296.48302751404054,0.2164568367299993,271.6813266888992
1703231557794,295.69518651404053,0.3947923367299993,270.55430868889914
1703231557808,294.90608591404055,0.5766492367299993,269.43527068889915
1703231557821,294.11749081404054,0.7469001367299993,268.32284068889913
1703231557835,293.33028591404053,0.8941033367299993,267.21497068889914
1703231557850,292.54493361404053,1.0111454367299992,266.1091636888991
1703231557864,291.7618441140405,1.0971633467299993,265.0034556888991
1703231557878,290.98141001404053,1.1489394567299993,263.89683868889915
1703231557891,290.2038939140405,1.166025116729999,262.78908568889915
1703231557905,289.4286149140405,1.1456972567299992,261.6795856888991
1703231557919,288.6544685140405,1.089968036729999,260.5683216888991
1703231557933,287.8804489140405,1.0026738267299993,259.4561286888991
1703231557947,287.10331641404053,0.8879558267299993,258.3433076888992
1703231557961,286.32063681404054,0.7552337267299993,257.2302276888991
1703231557975,285.5303870140405,0.6102828267299993,256.1168906888991
1703231557989,284.7323000140405,0.4544784267299993,255.0034756888991
1703231558002,283.9266231140405,0.2875473267299993,253.8916656888991
1703231558017,283.11381751404053,0.1117320267299993,252.78309668889912
1703231558030,282.29329341404053,-0.0682366732700006,251.67877868889911
1703231558044,281.46510091404053,-0.2465507732700007,250.57939968889912
1703231558058,280.6303973140405,-0.4194690732700007,249.48519668889912
1703231558073,279.79160541404053,-0.5851507732700008,248.3970676888991
1703231558085,278.9513642140405,-0.7420727732700008,247.31608968889915
1703231558100,278.11092071404056,-0.8867751732700008,246.2438926888992
1703231558113,277.2733150140406,-1.0154205732700008,245.18305268889912
1703231558127,276.4387715140406,-1.104756823270001,244.12780268889912
1703231558141,275.60391061404056,-1.1023950032700007,243.0673326888991
1703231558155,274.7628531140406,-1.0258636432700008,241.98772968889912
1703231558169,273.9234994140406,-0.9209966432700007,240.89500368889912
1703231558184,273.09915331404056,-0.8262113432700008,239.8089166888992
1703231558197,272.2891079140406,-0.7571158532700007,238.72811568889912
1703231558211,271.4964106140406,-0.7027321232700008,237.6528536888991
1703231558224,270.7217116140406,-0.6406617432700008,236.5816186888991
1703231558238,269.9637183140406,-0.5535181332700008,235.50915268889912
1703231558253,269.2212557140406,-0.4324361332700007,234.43206568889912
1703231558266,268.4916070140406,-0.2776382332700007,233.3485846888991
1703231558280,267.7726620140406,-0.0874035332700007,232.2604236888991
1703231558294,267.06159681404057,0.1329050667299992,231.1686696888991
1703231558308,266.3562600140406,0.3679481667299992,230.0743986888991
1703231558322,265.6572396140406,0.6020945667299993,228.9787466888991
1703231558336,264.9631843140406,0.8211648667299993,227.8817946888991
1703231558350,264.2721431140406,1.0142642667299993,226.7830166888991
1703231558364,263.5817532140406,1.1723738667299992,225.6817566888991
1703231558378,262.8902025140406,1.2909863667299992,224.5772246888991
1703231558391,262.1959354140406,1.367229066729999,223.4674416888991
1703231558405,261.4985257140406,1.4009536467299992,222.3507646888991
1703231558419,260.79730161404063,1.3918675157299991,221.2254456888991
1703231558433,260.09301901404064,1.3431586257299992,220.0913636888991
1703231558447,259.38686611404063,1.2576924457299992,218.9486686888991
1703231558461,258.67927581404064,1.1374401457299992,217.79652068889908
1703231558475,257.97032371404066,0.9874629457299992,216.63503668889908
1703231558489,257.26151071404064,0.8113501457299992,215.46566368889907
1703231558503,256.55508531404064,0.6136640457299992,214.28750068889903
1703231558516,255.85389851404065,0.4046790457299992,213.09796068889904
1703231558530,255.16014991404063,0.1954863457299992,211.89643068889907
1703231558545,254.47410881404065,-0.0065688542700007,210.68120668889907
1703231558558,253.79506061404064,-0.1971527542700007,209.45269168889908
1703231558573,253.12299071404064,-0.3743526542700007,208.21249468889908
1703231558585,252.45891531404064,-0.5376075542700007,206.9626626888991
1703231558599,251.80276691404063,-0.6851909542700008,205.7049836888991
1703231558613,251.15434251404065,-0.8121596542700007,204.4435566888991
1703231558627,250.51086651404063,-0.9075180342700008,203.18391368889908
1703231558642,249.86785791404063,-0.9402300942700008,201.92663568889907
1703231558655,249.21835661404063,-0.8937105342700007,200.66819768889903
1703231558669,248.55487791404065,-0.7967645442700007,199.40444168889903
1703231558683,247.8871642140406,-0.6955441442700007,198.15261768889903
1703231558697,247.21826001404065,-0.6003083942700007,196.91886168889903
1703231558711,246.54517191404065,-0.5028341042700007,195.70366768889903
1703231558726,245.8652366140406,-0.3874067042700007,194.50648668889903
1703231558739,245.1752084140406,-0.2450548042700007,193.32775268889907
1703231558752,244.4735542140406,-0.0759941042700007,192.16594468889903
1703231558767,243.7640070140406,0.1175316957299992,191.02208868889903
1703231558780,243.0503795140406,0.3310713957299993,189.89429668889903
1703231558794,242.3343122140406,0.5604892957299993,188.77854368889905
1703231558809,241.6161979140406,0.7975626957299993,187.67163368889905
1703231558822,240.89657881404065,1.0282196957299994,186.57185668889903
1703231558835,240.17601181404063,1.2385666957299994,185.47781068889907
1703231558849,239.45497361404065,1.4180112957299995,184.38650268889907
1703231558863,238.73378981404065,1.5580880957299996,183.29527568889907
1703231558877,238.01191411404065,1.6567078057299995,182.20153668889907
1703231558891,237.28800151404064,1.7104982657299996,181.10333568889908
1703231558905,236.56120531404065,1.7222490357299995,179.9997326888991
1703231558919,235.82983621404065,1.6942339457299995,178.8911426888991
1703231558933,235.0930768140406,1.6304200557299997,177.7777496888991
1703231558947,234.35014581404064,1.5359916657299997,176.6597426888991
1703231558961,233.5997318140406,1.4163374657299994,175.53687368889908
1703231558974,232.84237781404065,1.2799471657299994,174.41070368889908
1703231558988,232.07841621404063,1.1297569657299995,173.28338968889906
1703231559002,231.30845031404064,0.9664903657299996,172.15752168889907
1703231559017,230.53309941404063,0.7930371657299995,171.03474368889906
1703231559030,229.75231701404064,0.6152192657299995,169.91570668889906
1703231559044,228.96612021404064,0.4398066657299995,168.79942768889907
1703231559058,228.17406901404064,0.2732441657299995,167.68388068889908
1703231559072,227.37587361404064,0.1195235657299994,166.56892568889907
1703231559086,226.57015521404065,-0.0201564342700005,165.45496068889906
1703231559100,225.75713111404065,-0.1445045342700005,164.3420276888991
1703231559115,224.93692101404065,-0.2514964342700005,163.22991068889905
1703231559128,224.11101631404065,-0.3440640842700005,162.11960368889905
1703231559141,223.28342951404065,-0.4284503242700005,161.01405968889904
1703231559155,222.45894361404063,-0.5037272642700006,159.91292468889904
1703231559169,221.63485261404065,-0.5285376042700006,158.80658068889903
1703231559183,220.80828031404064,-0.5059324742700007,157.68966268889903
1703231559197,219.98076881404063,-0.4787815442700006,156.55686668889902
1703231559211,219.16426461404063,-0.4707280552700006,155.427951688899
1703231559225,218.35868511404064,-0.4809805452700006,154.304472688899
1703231559239,217.56665081404063,-0.4943201152700006,153.187368688899
1703231559252,216.79164961404064,-0.4923861072700006,152.075595688899
1703231559266,216.03719231404065,-0.4667479372700006,150.969123688899
1703231559280,215.30358661404065,-0.4152513372700006,149.869223688899
1703231559294,214.58932921404065,-0.3326751972700006,148.776520688899
1703231559308,213.8918524140406,-0.2016216972700006,147.689764688899
1703231559322,213.2048240140406,-0.0078200972700006,146.60481268889902
1703231559336,212.5216338140406,0.2333325027299993,145.51729568889905
1703231559350,211.8430229140406,0.4978146027299993,144.43133068889904
1703231559363,211.1688131140406,0.7610723027299993,143.34714268889903
1703231559378,210.4976989140406,1.0064565027299992,142.26263768889902
1703231559391,209.8278475140406,1.2217010027299993,141.17671168889902
1703231559405,209.1573892140406,1.3994003027299993,140.087816688899
1703231559419,208.4848286140406,1.5338039027299992,138.995129688899
1703231559433,207.80991861404053,1.6175932927299992,137.898444688899
1703231559447,207.13315051404047,1.6535872627299992,136.797294688899
1703231559461,206.4554462140406,1.6397505427299992,135.690178688899
1703231559475,205.7773560140405,1.583623372729999,134.57609368889902
1703231559488,205.09736761404056,1.4907898727299993,133.454293688899
1703231559503,204.41509721404057,1.3660270727299992,132.32562968889903
1703231559516,203.73316011404057,1.2107358727299993,131.19083968889902
1703231559530,203.05417691404057,1.0311629727299991,130.049114688899
1703231559545,202.38175701404057,0.8331933727299994,128.899410688899
1703231559558,201.7176574140406,0.6229391727299993,127.741792688899
1703231559572,201.0620829140406,0.4060820727299993,126.577329688899
1703231559586,200.4146966140406,0.1896559727299993,125.407327688899
1703231559599,199.7753370140406,-0.0186343272700007,124.231995688899
1703231559614,199.14349551404047,-0.2117160272700007,123.050127688899
1703231559627,198.51799661404056,-0.3803527272700007,121.860288688899
1703231559641,197.8991198140405,-0.5185962272700007,120.663991688899
1703231559655,197.2867115140405,-0.6310499272700006,119.465645688899
1703231559669,196.6786458140405,-0.7180772572700006,118.272243688899
1703231559683,196.06724831404057,-0.7504618172700006,117.082445688899
1703231559697,195.44570441404056,-0.7183898872700006,115.895395688899
1703231559711,194.80924241404057,-0.6654435072700007,114.706653688899
1703231559724,194.1643857140405,-0.6136719972700007,113.526802688899
1703231559739,193.51109501404056,-0.5592422972700006,112.358326688899
1703231559753,192.84452211404056,-0.4813114972700006,111.199522688899
1703231559766,192.16352871404047,-0.3673734972700007,110.052849688899
1703231559780,191.46914721404056,-0.2235603972700006,108.92344468889898
1703231559794,190.76683031404056,-0.0638735972700006,107.81693968889898
1703231559808,190.05900881404057,0.1055260027299993,106.73510068889898
1703231559822,189.3453998140405,0.2882471027299993,105.67544268889898
1703231559835,188.6241104140406,0.4962447027299993,104.63143268889898
1703231559849,187.8949046140406,0.7328245027299993,103.594675688899
1703231559863,187.1596926140406,0.9816988027299992,102.56043368889898
1703231559877,186.4213459140406,1.2203175027299993,101.52974068889898
1703231559891,185.6802918140406,1.4330830027299992,100.50087868889898
1703231559906,184.9361576140406,1.6114200027299992,99.47176368889896
1703231559919,184.18909601404064,1.7510057027299992,98.44031068889898
1703231559932,183.4390769140406,1.8485680727299991,97.40528868889898
1703231559947,182.68551921404065,1.8993885227299991,96.36631168889896
1703231559961,181.92906191404063,1.905420183729999,95.32355968889898
1703231559976,181.17007881404064,1.8704187637299992,94.27694568889898
1703231559988,180.40831121404065,1.8013336837299991,93.22488468889898
1703231560002,179.64296511404063,1.709467003729999,92.16785468889898
1703231560016,178.87061381404064,1.600409203729999,91.10613768889898
1703231560030,178.08928651404065,1.4809043037299991,90.04354368889898
1703231560044,177.29704551404066,1.3512760037299991,88.98281568889898
1703231560058,176.49429621404067,1.211958703729999,87.92493968889899
1703231560072,175.68121961404069,1.064583403729999,86.87101468889898
1703231560085,174.8574563140407,0.9137373037299992,85.82274568889898
1703231560100,174.0222245140407,0.763287203729999,84.78239668889897
1703231560113,173.17586831404068,0.6167549037299991,83.74999068889898
1703231560127,172.3201924140407,0.476963303729999,82.72449168889898
1703231560141,171.4590322140407,0.346598503729999,81.70350568889899
1703231560155,170.5943934140407,0.228074403729999,80.68604868889899
1703231560169,169.7281009140407,0.123672503729999,79.673157688899
1703231560183,168.8650670140407,0.034179703729999,78.666914688899
1703231560197,168.0054948140407,-0.0099007762700009,77.659350688899
1703231560213,167.1483335140407,0.025927753729999,76.650176688899
1703231560225,166.2851821140407,0.108863083729999,75.623474688899
1703231560238,165.42732591404072,0.196409383729999,74.595307688899
1703231560252,164.5846585140407,0.261756343729999,73.577971688899
1703231560266,163.7593448140407,0.301670583729999,72.567536688899
1703231560280,162.9569619140407,0.3320111237299991,71.56440368889899
1703231560296,162.1801104140407,0.3764754337299991,70.568347688899
1703231560308,161.42447361404072,0.4503554337299991,69.57582708889899
1703231560323,160.6873781140407,0.5628434337299991,68.58449158889898
1703231560336,159.96895351404072,0.7157373337299991,67.59208358889899
1703231560349,159.26923621404072,0.9095727337299992,66.59890848889899
1703231560363,158.58540801404072,1.1375658337299992,65.60484738889899
1703231560377,157.91404891404073,1.3833258337299992,64.610706088899
1703231560391,157.25107391404077,1.6283983337299992,63.617600688899
1703231560405,156.59320581404074,1.8589003337299992,62.625196288899
1703231560419,155.93811991404075,2.063710133729999,61.632652188898994
1703231560433,155.28371291404076,2.232342833729999,60.639385588899
1703231560448,154.62835141404076,2.3603115337299987,59.644978988899
1703231560461,153.97226731404078,2.445003063729999,58.649315488899
1703231560474,153.31728091404077,2.485504763729999,57.651441188899
1703231560488,152.66381441404076,2.4858425607299988,56.649582188899
1703231560502,152.01148391404075,2.447302950729999,55.642633188899
1703231560516,151.35940011404074,2.3742564307299987,54.630979188899
1703231560530,150.7083976140407,2.269670730729999,53.614278188899
1703231560544,150.06026291404072,2.1368992307299988,52.591746188899
1703231560558,149.41599991404073,1.9794134307299989,51.562953188899
1703231560572,148.77561781404071,1.8021754307299989,50.528149188899
1703231560586,148.14022061404071,1.6074288307299989,49.488392188899
1703231560600,147.51246011404072,1.3986855307299988,48.444826188899
1703231560613,146.8944762140407,1.1806052307299988,47.397611188899
1703231560628,146.28655591404072,0.9622884307299988,46.345550188899
1703231560641,145.68761061404072,0.7554164307299989,45.287622188899
1703231560655,145.0947742140407,0.5690947307299988,44.223853188899
1703231560669,144.5065748140407,0.4087913307299988,43.153799188899
1703231560683,143.9238148140407,0.2739520307299988,42.078854188899
1703231560697,143.3488466140407,0.1622102307299988,41.001280188899
1703231560711,142.7851154140407,0.0684716607299988,39.926565188899005
1703231560725,142.23213811404068,-0.0092789492700011,38.859317188899006
1703231560739,141.6818739140407,-0.0341601592700011,37.79427518889901
1703231560752,141.1284529140407,0.0131018707299988,36.732955188899005
1703231560766,140.56539351404072,0.0782445307299988,35.669464188899006
1703231560780,140.00111591404072,0.1315120607299988,34.61456718889901
1703231560794,139.4357585140407,0.1775411307299988,33.56713218889901
1703231560808,138.86508311404071,0.2250533207299988,32.52611818889901
1703231560823,138.2846708140407,0.2886592307299989,31.49162518889901
1703231560836,137.6928070140407,0.3769324907299989,30.46485218889901
1703231560850,137.0912355140407,0.4940885907299989,29.44843518889901
1703231560863,136.4845301140407,0.6375114907299989,28.44645818889901
1703231560877,135.8743975140407,0.8035421907299989,27.46039468889901
1703231560891,135.2619995140407,0.9919414907299988,26.487256988899013
1703231560905,134.6490517140407,1.203071190729999,25.52190848889901
1703231560919,134.0374751140407,1.426687190729999,24.561064688899013
1703231560932,133.4296721140407,1.645949790729999,23.60438088889901
1703231560947,132.8269754140407,1.845059690729999,22.650474388899013
1703231560961,132.2283066140407,2.015435190729999,21.69747448889901
1703231560975,131.63223731404068,2.150642190729999,20.74373028889901
1703231560989,131.03691151404067,2.249226210729999,19.78791558889901
1703231561002,130.44240791404067,2.311624700729999,18.82983698889901
1703231561016,129.84833781404066,2.338494420729999,17.86889798889901
1703231561030,129.25381361404067,2.330963967729999,16.903588288899012
1703231561044,128.65787001404067,2.293961507729999,15.932888988899013
1703231561058,128.05958531404067,2.229665347729999,14.956993288899012
1703231561072,127.45723451404068,2.141362417729999,13.977934288899013
1703231561085,126.84849821404067,2.033423517729999,12.998258988899012
1703231561100,126.23200991404067,1.912374617729999,12.019098788899012
1703231561114,125.60652851404068,1.781807717729999,11.039884588899012
1703231561128,124.97389891404067,1.643447817729999,10.059391688899012
1703231561141,124.33467881404069,1.497976617729999,9.077627988899012
1703231561155,123.69008891404069,1.345525217729999,8.095720288899011
1703231561170,123.04009011404068,1.188187317729999,7.114331788899012
1703231561183,122.38461731404068,1.0300253177299992,6.134664588899012
1703231561196,121.72393371404068,0.8754134177299991,5.157804388899012
1703231561211,121.05750961404068,0.7305714177299991,4.184921188899012
1703231561226,120.38623231404068,0.6003112177299992,3.2186802888990123
1703231561239,119.71420071404069,0.4827989177299991,2.2627833888990123
1703231561252,119.04757811404068,0.3714882177299992,1.3234179888990123
1703231561266,118.38746741404069,0.2856092577299992,0.3951412888990123
1703231561280,117.72987281404068,0.2739597177299991,-0.5313098111009876
1703231561294,117.06937621404067,0.3426699777299992,-1.4686204111009875
1703231561308,116.40792121404068,0.4495502777299991,-2.419767211100988
1703231561323,115.75888201404068,0.5537649777299991,-3.3637683111009875
1703231561336,115.12423451404068,0.6281267677299991,-4.297175111100987
1703231561350,114.50633191404069,0.6669020177299991,-5.219147311100987
1703231561363,113.91025431404069,0.6809562477299991,-6.128693611100987
1703231561379,113.33921071404068,0.6910179677299991,-7.026344111100987
1703231561391,112.79444001404067,0.7183359577299991,-7.917008311100987
1703231561405,112.26945211404067,0.7770856677299991,-8.806319611100987
1703231561418,111.75796891404067,0.8800482677299991,-9.696858711100989
1703231561432,111.25488501404068,1.0291382677299992,-10.586408111100988
1703231561446,110.75784361404068,1.211817067729999,-11.472377111100986
1703231561461,110.26588251404068,1.413003667729999,-12.354662911100986
1703231561475,109.77690271404067,1.618968767729999,-13.234103811100988
1703231561488,109.28930371404068,1.8177953677299992,-14.111596211100986
1703231561501,108.80197921404068,1.9995894677299992,-14.988166511100983
1703231561515,108.31437031404069,2.155114867729999,-15.864526211100983
1703231561529,107.82479911404069,2.277424667729999,-16.740964811100984
1703231561544,107.33187671404067,2.360780407729999,-17.617159311100984
1703231561557,106.83521591404067,2.404149237729999,-18.492959311100982
1703231561571,106.33545401404068,2.408908323729999,-19.369527811100987
1703231561585,105.83351411404068,2.38097748373,-20.247680211100988
1703231561598,105.32995161404068,2.3251651737299994,-21.128585211100987
1703231561614,104.82500471404067,2.2459111537299994,-22.012386111100987
1703231561627,104.31824841404068,2.1430957537299995,-22.899501211100983
1703231561641,103.80905221404068,2.01951895373,-23.789530911100982
1703231561654,103.29786891404068,1.87947655373,-24.682714411100985
1703231561668,102.78641781404068,1.7283467537299997,-25.580027511100987
1703231561682,102.27610071404068,1.5715952537299995,-26.481054011100987
1703231561698,101.76715941404068,1.4129072537299996,-27.385471311100986
1703231561711,101.25937461404068,1.2542465537299996,-28.292351611100987
1703231561724,100.75224581404068,1.0958040537299996,-29.200987011100988
1703231561738,100.24645811404068,0.9380005537299996,-30.112331211100987
1703231561752,99.74249731404068,0.7805386537299996,-31.026605111100988
1703231561766,99.23871711404068,0.6252806537299996,-31.94419821110099
1703231561780,98.73229521404068,0.4789783537299996,-32.86508721110099
1703231561793,98.22104511404068,0.3460173537299996,-33.78887941110099
1703231561807,97.70529461404068,0.2234674537299996,-34.71423881110099
1703231561820,97.18730201404068,0.1025582537299996,-35.636880211100994
1703231561834,96.66880721404068,-0.0265055462700003,-36.548544111101
1703231561850,96.14647231404068,-0.1607448462700003,-37.442339911100994
1703231561863,95.61184411404068,-0.2708175462700003,-38.31709351110099
1703231561877,95.05660401404069,-0.3329979962700003,-39.17448201110099
1703231561890,94.47349421404068,-0.3566474562700003,-40.01358891110099
1703231561904,93.86811451404068,-0.3593484702700003,-40.82126381110099
1703231561919,93.24142611404066,-0.3399227302700003,-41.58292191110099
1703231561933,92.59225221404068,-0.2959353802700003,-42.29870611110099
1703231561946,91.92403041404069,-0.2126942602700003,-42.97203021110099
1703231561959,91.24072381404068,-0.0830521602700003,-43.60746621110099
1703231561974,90.54440751404069,0.0867148397299996,-44.20393541110099
1703231561988,89.84114071404068,0.2782329397299997,-44.760559011101
1703231562001,89.13635601404067,0.4783432397299997,-45.279143411101
1703231562016,88.43511111404067,0.6792246397299997,-45.762861011101
1703231562029,87.73912411404066,0.8757179397299997,-46.219655411101
1703231562043,87.04840811404067,1.0625379397299997,-46.653800311100994
1703231562056,86.36363511404066,1.2333108397299997,-47.068417611101
1703231562070,85.68617501404066,1.3803272397299997,-47.465709311100994
1703231562085,85.01808781404065,1.4957289397299998,-47.848251511101
1703231562099,84.36038851404065,1.5762387497299997,-48.219874911101
1703231562113,83.71150151404065,1.6246556997299997,-48.58399301110099
1703231562127,83.07062751404065,1.6405690097299996,-48.94077331110099
1703231562141,82.43407861404066,1.6302525897299995,-49.28932121110099
1703231562155,81.79814931404066,1.5990551997299995,-49.62778831110099
1703231562168,81.16023711404065,1.5538781397299994,-49.95617451110099
1703231562181,80.51894351404066,1.4983735497299997,-50.27364651110099
1703231562196,79.87390901404066,1.4340526097299997,-50.57680961110099
1703231562210,79.22446051404066,1.3613442297299996,-50.860640911100994
1703231562224,78.57035911404066,1.2809343397299997,-51.12249671110099
1703231562239,77.91243141404065,1.1952440197299994,-51.36730781110099
1703231562252,77.25065471404065,1.1056628497299994,-51.598214111100994
1703231562265,76.58489681404065,1.013551889729999,-51.81657371110099
1703231562280,75.91365171404065,0.9198174497299992,-52.02105751110099
1703231562293,75.23495561404066,0.8257409197299993,-52.21058441110099
1703231562307,74.54677311404066,0.7332159797299993,-52.38487391110099
1703231562321,73.84753861404066,0.6425535997299993,-52.545154211100986
1703231562334,73.13719801404066,0.5533471097299992,-52.69353561110098
1703231562348,72.41595881404066,0.4630624497299992,-52.83055981110098
1703231562363,71.68330021404067,0.3697664997299992,-52.95645221110098
1703231562377,70.93907951404067,0.2741677197299992,-53.07061731110098
1703231562391,70.18451581404067,0.1791845897299992,-53.17299821110098
1703231562404,69.42022741404067,0.0854715497299992,-53.26238614110098
1703231562417,68.64979001404066,-0.0111014002700007,-53.34184112110098
1703231562431,67.87759591404067,-0.1176439002700008,-53.41474387110098
1703231562446,67.10430101404067,-0.2336402002700008,-53.48514588110098
1703231562460,66.31938591404067,-0.3176221802700008,-53.55449980110098
1703231562476,65.51989371404066,-0.3235592952700007,-53.61227071110098
1703231562488,64.70050811404066,-0.2914560752700008,-53.65129430110098
1703231562501,63.883022714040656,-0.2714350652700008,-53.68328730110098
1703231562515,63.08732021404066,-0.2905830452700008,-53.72241249110098
1703231562529,62.31515251404066,-0.3547351552700007,-53.77230434110098
1703231562544,61.57336071404066,-0.4520664752700007,-53.82963861110098
1703231562557,60.86164401404066,-0.5591248752700008,-53.885975911100985
1703231562571,60.16942151404066,-0.6505630052700008,-53.935489971100985
1703231562585,59.48784171404066,-0.6965065452700008,-53.97364767110098
1703231562598,58.801733114040665,-0.6872267502700008,-53.999612171100985
1703231562613,58.11186081404067,-0.6334126302700008,-54.01578581110098
1703231562627,57.42856661404067,-0.5529049702700009,-54.02308593510098
1703231562642,56.75298651404067,-0.4614887402700008,-54.02220964250098
1703231562655,56.083751214040674,-0.3646779102700008,-54.01305915250098
1703231562667,55.41651711404067,-0.2655863202700008,-53.99501717250098
1703231562682,54.747598414040674,-0.1680869202700008,-53.96716545250098
1703231562696,54.07445011404067,-0.0777507202700008,-53.92870803250098
1703231562712,53.39596881404067,9.946972999917704e-05,-53.87981041250098
1703231562724,52.71103631404067,0.0603927897299991,-53.82019202250098
1703231562737,52.01886351404067,0.1003059297299991,-53.75073511250098
1703231562751,51.319475314040666,0.1190667297299991,-53.67292858250099
1703231562765,50.61250111404067,0.1156333067299991,-53.58789441250099
1703231562780,49.89753311404067,0.0936967567299991,-53.496848292500985
1703231562793,49.17301561404067,0.0567504267299991,-53.39798426250098
1703231562808,48.43839971404067,0.0090719867299991,-53.28975846250098
1703231562821,47.69288091404067,-0.0471506232700008,-53.17133586250098
1703231562835,46.93579091404067,-0.1102668932700008,-53.044383762500985
1703231562849,46.16625481404067,-0.1799577532700008,-52.91024196250098
1703231562863,45.38471131404067,-0.2531939832700008,-52.76979446250098
1703231562877,44.59105041404067,-0.3277425432700008,-52.62211616250098
