time,rotate_x,rotate_y,rotate_z,angularVelocity_x,angularVelocity_y,angularVelocity_z,velocity_x,velocity_y,velocity_z,acceleration_x,acceleration_y,acceleration_z,position_x,position_y,position_z
2023-12-22 07:52:18.492000000,0.05419177,-0.3117594,-0.008094399,-0.004118362,0.00106864,-0.005257828,-4.204776e-05,0.0007316664,-0.004622977,-4.204776e-05,0.0007316664,-0.004622977,-1.07648,1.299796,0.4628151
2023-12-22 07:52:18.500999936,0.05547155,-0.3110484,-0.007550984,0.01727473,0.006964494,-0.001342267,0.005084567,0.0004117771,-0.005417512,0.0050425192399999,0.0011434435,-0.010040489,-1.07601,0.07412057,0.4617923
2023-12-22 07:52:18.512000000,0.05520799,-0.3114451,-0.007149968,0.02256649,-0.00148913,0.002343073,0.005800107,0.0001674466,-0.005430232,0.01084262624,0.0013108901,-0.015470721,-1.075894,0.07414292,0.4617535
2023-12-22 07:52:18.530999808,0.05511408,-0.3119398,-0.00670099,0.02187443,-0.009150404,0.02086162,0.006892191,-0.000386832,-0.005809567,0.01773481724,0.0009240581,-0.021280288,-1.075726,0.07415184,0.4616867
2023-12-22 07:52:18.548999936,0.05431816,-0.3122475,-0.006722168,0.01078788,-0.01533057,0.03031501,0.007662823,-0.001509435,-0.006796012,0.0253976402399999,-0.0005853769,-0.0280763,-1.075582,0.07404719,0.4615384
2023-12-22 07:52:18.568000000,0.05398003,-0.3124635,-0.006953899,-0.0008901516,-0.02270469,0.03412223,0.00790728,-0.002156801,-0.007267612,0.0333049202399999,-0.0027421779,-0.035343912,-1.075444,0.07395784,0.4613991
2023-12-22 07:52:18.584999936,0.05414424,-0.3129438,-0.006672889,0.003693006,-0.02579207,0.03253875,0.008128145,-0.002441802,-0.00743583,0.04143306524,-0.0051839799,-0.042779742,-1.075314,0.07392776,0.461303
2023-12-22 07:52:18.601999872,0.05452117,-0.3128164,-0.006434248,0.01073927,-0.02436103,0.02231063,0.00870005,-0.001666642,-0.007243188,0.05013311524,-0.0068506219,-0.05002293,-1.075201,0.07395976,0.4612075
2023-12-22 07:52:18.619000064,0.05498524,-0.3129078,-0.006583203,0.01951997,-0.02466399,0.006042283,0.008828876,-0.0006384103,-0.007114285,0.05896199124,-0.0074890322,-0.057137215,-1.075078,0.07399025,0.461103
2023-12-22 07:52:18.636000000,0.05490082,-0.3130099,-0.00629265,0.02647493,-0.01864344,0.001945027,0.008783963,2.428173e-05,-0.007337417,0.06774595424,-0.00746475047,-0.064474632,-1.074936,0.07402824,0.4609692
2023-12-22 07:52:18.653000192,0.05486644,-0.3131072,-0.006061452,0.02739455,-0.01416324,0.008450399,0.008097213,6.505154e-05,-0.00775515,0.07584316724,-0.00739969893,-0.072229782,-1.074855,0.07405526,0.46082
2023-12-22 07:52:18.668999936,0.05464205,-0.312995,-0.005844996,0.028295,-0.006337921,0.01683222,0.007181732,-0.0004736501,-0.008300891,0.08302489924,-0.00787334903,-0.080530673,-1.074802,0.07404545,0.4606497
2023-12-22 07:52:18.684999936,0.05474304,-0.3128982,-0.005737227,0.02438571,-0.003415382,0.0164225,0.006323359,-0.0008706964,-0.008248936,0.08934825824,-0.00874404543,-0.088779609,-1.074785,0.07403244,0.4605142
2023-12-22 07:52:18.700000000,0.05471142,-0.3129268,-0.005663119,0.01290069,0.003013512,0.01324674,0.006009691,-6.017159e-05,-0.008071454,0.09535794924,-0.00880421702,-0.096851063,-1.074732,0.07406594,0.4603801
2023-12-22 07:52:18.714999808,0.05497069,-0.3128516,-0.005756025,0.01270117,0.004407859,-0.002649729,0.005874745,0.0006459225,-0.00732951,0.10123269424,-0.00815829452,-0.104180573,-1.074672,0.0740951,0.4602785
2023-12-22 07:52:18.730000128,0.0553073,-0.3129851,-0.005567193,0.02499787,0.0006630178,-0.007376758,0.005816123,0.001420832,-0.006744377,0.10704881724,-0.00673746252,-0.11092495,-1.074581,0.07415584,0.4601828
2023-12-22 07:52:18.744999936,0.05554095,-0.3129071,-0.005537041,0.02905142,-0.001373039,-0.01035821,0.005947714,0.002083331,-0.00644297,0.11299653124,-0.00465413152,-0.11736792,-1.074485,0.07421045,0.4600692
2023-12-22 07:52:18.759000064,0.05564903,-0.3130337,-0.00542907,0.02623432,-0.005205993,-0.01080407,0.00573954,0.002394718,-0.006233092,0.11873607124,-0.00225941352,-0.123601012,-1.074396,0.07426104,0.4599588
2023-12-22 07:52:18.773999872,0.05569735,-0.3131796,-0.005256956,0.0195726,-0.005955692,-0.008314336,0.005571351,0.00247737,-0.006012647,0.12430742224,0.0002179564799999,-0.129613659,-1.074316,0.0743143,0.4598599
2023-12-22 07:52:18.788999936,0.05575898,-0.3132307,-0.005320981,0.01230715,-0.009816077,-0.005639483,0.00534074,0.001873303,-0.005956322,0.12964816224,0.0020912594799999,-0.135569981,-1.074232,0.07433293,0.4597463
2023-12-22 07:52:18.803000064,0.05567683,-0.3133647,-0.005246928,0.009194636,-0.0120123,0.002605955,0.005336673,0.001289059,-0.005894597,0.13498483524,0.0033803184799999,-0.141464578,-1.074149,0.07434923,0.4596437
2023-12-22 07:52:18.816999936,0.05564063,-0.3135276,-0.005248764,0.005756909,-0.01559878,0.004194589,0.005127599,0.0007216464,-0.005390403,0.14011243424,0.0041019648799999,-0.146854981,-1.074098,0.0743513,0.4595705
2023-12-22 07:52:18.832000000,0.05560244,-0.3136776,-0.005220175,0.004726748,-0.01745138,0.006328441,0.005118765,0.0003661587,-0.004722585,0.14523119924,0.0044681235799999,-0.151577566,-1.074031,0.07435555,0.4595107
2023-12-22 07:52:18.845999872,0.05555585,-0.3137637,-0.005179022,0.004513994,-0.01512917,0.008232015,0.005344373,-4.040376e-05,-0.00401915,0.15057557224,0.0044277198199999,-0.155596716,-1.073973,0.07434662,0.4594647
2023-12-22 07:52:18.860000000,0.05552957,-0.3138506,-0.005156228,0.003718431,-0.01390883,0.00784414,0.005093695,-0.0008497097,-0.00329777,0.15566926724,0.0035780101199999,-0.158894486,-1.073925,0.07431285,0.4594092
2023-12-22 07:52:18.872999936,0.05539698,-0.3139114,-0.005097877,0.001576066,-0.01105768,0.01245073,0.004750011,-0.001730589,-0.00269482,0.16041927824,0.0018474211199999,-0.161589306,-1.073904,0.07427106,0.459383
2023-12-22 07:52:18.887000064,0.05523124,-0.3139279,-0.005047012,-0.00136107,-0.006986558,0.01667177,0.004281866,-0.002418669,-0.002380493,0.16470114424,-0.00057124788,-0.163969799,-1.073888,0.07423156,0.4593593
2023-12-22 07:52:18.901999872,0.05507499,-0.3139175,-0.00492737,-0.001987335,-0.003388103,0.02054006,0.00379222,-0.002581763,-0.001868526,0.16849336424,-0.00315301088,-0.165838325,-1.073871,0.07420573,0.4593378
2023-12-22 07:52:18.916000000,0.05496692,-0.3138095,-0.004902839,-0.002723928,0.005255624,0.01707967,0.003753023,-0.002450726,-0.001685991,0.17224638724,-0.00560373688,-0.167524316,-1.073821,0.07418525,0.4593151
2023-12-22 07:52:18.930000128,0.05481114,-0.3138343,-0.004862675,-0.004753968,0.00357946,0.01888922,0.003232413,-0.002245891,-0.001425507,0.17547880024,-0.00784962788,-0.168949823,-1.073769,0.0741685,0.4592862
2023-12-22 07:52:18.944000000,0.05472054,-0.3138124,-0.004850022,-0.005136374,0.003522313,0.01654084,0.002685362,-0.00256861,-0.001413326,0.17816416224,-0.01041823788,-0.170363149,-1.073739,0.07413804,0.4592509
2023-12-22 07:52:18.956999936,0.05446149,-0.313803,-0.004853059,-0.009958258,0.006791146,0.019164,0.002364108,-0.002574065,-0.001324479,0.18052827024,-0.01299230288,-0.1716876279999999,-1.073724,0.07411727,0.4592187
2023-12-22 07:52:18.971000064,0.05433584,-0.3135386,-0.004905553,-0.01145718,0.01143527,0.01929123,0.002271185,-0.002876523,-0.001201008,0.18279945524,-0.01586882588,-0.1728886359999999,-1.073687,0.07407799,0.4591575
2023-12-22 07:52:18.984999936,0.05419198,-0.3135094,-0.004974692,-0.01724752,0.0102014,0.01541211,0.001846509,-0.003038409,-0.0009074012,0.18464596424,-0.01890723488,-0.1737960371999999,-1.073642,0.07402619,0.4591433
2023-12-22 07:52:19.000000000,0.05406829,-0.3133609,-0.004987624,-0.01690243,0.01212143,0.01193804,0.00160742,-0.003100315,-0.000751407,0.18625338424,-0.0220075498799999,-0.1745474441999999,-1.073623,0.07397801,0.4591262
2023-12-22 07:52:19.013999872,0.05411963,-0.3132085,-0.004991845,-0.01210162,0.01743834,0.007211675,0.001547205,-0.002845051,-0.001049349,0.18780058924,-0.02485260088,-0.1755967932,-1.073633,0.07394359,0.4590818
2023-12-22 07:52:19.028000000,0.05399859,-0.313214,-0.004886453,-0.006411808,0.01646173,0.01020312,0.00103101,-0.002125508,-0.001233427,0.18883159924,-0.0269781088799999,-0.1768302202,-1.07364,0.07393268,0.4590324
2023-12-22 07:52:19.042000128,0.053996,-0.3129202,-0.004989353,-0.01033025,0.02126653,0.003961597,0.0008031023,-0.001263551,-0.001492592,0.18963470154,-0.02824165988,-0.1783228121999999,-1.073669,0.07392773,0.4589829
2023-12-22 07:52:19.056000000,0.05403573,-0.3127578,-0.004904067,-0.005983517,0.02433828,-0.004008429,0.0005865227,-0.000931251,-0.001564852,0.19022122424,-0.02917291088,-0.1798876642,-1.073681,0.07392768,0.4589432
2023-12-22 07:52:19.069999872,0.05409617,-0.3125987,-0.004990951,-0.002738995,0.02686949,-0.005525929,0.000391801,-0.0005744185,-0.001653142,0.19061302524,-0.02974732938,-0.1815408062,-1.073714,0.07392472,0.4589178
2023-12-22 07:52:19.084000000,0.05416596,-0.3124601,-0.004949047,0.006299032,0.02390776,-0.006854099,0.0004565554,-0.0004387709,-0.001742345,0.19106958064,-0.03018610028,-0.1832831512,-1.0737,0.07393523,0.4588405
2023-12-22 07:52:19.096999936,0.05424191,-0.3123671,-0.00463589,0.009576511,0.02119705,-0.004421225,0.0005989032,-0.0001246252,-0.001763726,0.19166848384,-0.0303107254799999,-0.1850468772,-1.073698,0.07396941,0.4587864
2023-12-22 07:52:19.111000064,0.05403396,-0.3123437,-0.004448824,0.01357891,0.01671542,0.008562202,0.000465475,6.67554e-05,-0.001913936,0.19213395884,-0.0302439700799999,-0.1869608132,-1.073696,0.07398731,0.4587459
2023-12-22 07:52:19.124000000,0.0540641,-0.3122994,-0.004489186,0.008113426,0.01351319,0.009460286,0.0005466939,-0.000196784,-0.002206377,0.19268065274,-0.0304407540799999,-0.1891671902,-1.073685,0.07397985,0.4587092
2023-12-22 07:52:19.139000064,0.05391688,-0.3123158,-0.004614698,-0.00417185,0.007229108,0.008568972,0.0004503899,0.0001107477,-0.002437177,0.19313104264,-0.0303300063799999,-0.1916043672,-1.073707,0.07398025,0.4586738
2023-12-22 07:52:19.152000000,0.05392932,-0.3123422,-0.004753071,-0.007312659,0.002053011,0.001446274,0.0006465224,0.0003924767,-0.002535752,0.19377756504,-0.0299375296799999,-0.1941401192,-1.073727,0.07397925,0.4586157
2023-12-22 07:52:19.165999872,0.05393363,-0.3123547,-0.004957333,-0.01266068,-0.0004423862,-0.004431941,0.0006814487,0.0009610288,-0.002387248,0.19445901374,-0.0289765008799999,-0.1965273672,-1.073725,0.07398845,0.4585494
2023-12-22 07:52:19.180000000,0.05404552,-0.3123568,-0.00510054,-0.01065842,-0.002284063,-0.01143582,0.0003864124,0.0007946417,-0.002345926,0.19484542614,-0.0281818591799999,-0.1988732932,-1.073725,0.07398154,0.4585097
2023-12-22 07:52:19.194000128,0.05404571,-0.3122788,-0.005135236,-0.008461075,0.001752801,-0.008962308,0.0002830429,0.00061171,-0.002256585,0.19512846904,-0.0275701491799999,-0.2011298782,-1.073778,0.07397512,0.458499
2023-12-22 07:52:19.208000000,0.05406965,-0.3121384,-0.005186777,-0.0072164,0.008010675,-0.009279782,0.0001612107,0.0002013386,-0.002177659,0.19528967974,-0.0273688105799999,-0.2033075372,-1.073835,0.07395819,0.458465
2023-12-22 07:52:19.221999872,0.05411782,-0.3120076,-0.005236318,-0.006067726,0.01206806,-0.01049923,-0.0001609144,-4.862682e-05,-0.001954711,0.19512876534,-0.0274174373999999,-0.2052622482,-1.073892,0.07394531,0.4584085
2023-12-22 07:52:19.236000000,0.05421355,-0.3117798,-0.0052331,-0.002613715,0.01900757,-0.01019385,-0.0001556934,-0.0005309657,-0.002061742,0.19497307194,-0.0279484030999999,-0.2073239902,-1.073929,0.07392419,0.4583322
2023-12-22 07:52:19.249000192,0.054091,-0.3115967,-0.005137279,-0.002534126,0.02268928,-0.001608583,-0.0003359737,-0.0009066722,-0.002048914,0.19463709824,-0.0288550752999999,-0.2093729042,-1.073951,0.07390056,0.4582814
2023-12-22 07:52:19.263000064,0.05405314,-0.3114516,-0.004954972,0.001242408,0.02427695,0.001645097,-0.0001729137,-0.001697143,-0.002087477,0.19446418454,-0.0305522182999999,-0.2114603812,-1.073938,0.07386194,0.4582216
2023-12-22 07:52:19.276999936,0.05395272,-0.3113187,-0.005024749,-0.00182667,0.02612951,0.00496508,0.0003537698,-0.00155401,-0.0022057,0.19481795434,-0.0321062283,-0.2136660812,-1.073937,0.0738364,0.4581731
2023-12-22 07:52:19.290999808,0.05413254,-0.3111588,-0.00508478,-0.003470407,0.02490006,-0.004408927,0.0009801552,-0.001143409,-0.002167558,0.19579810954,-0.0332496372999999,-0.2158336392,-1.073949,0.07383271,0.4581376
2023-12-22 07:52:19.305000192,0.05427644,-0.3111518,-0.0048297,0.007486545,0.01936009,-0.005921513,0.001397489,-0.0008840142,-0.002158251,0.19719559854,-0.0341336514999999,-0.2179918902,-1.073946,0.07384551,0.4581139
2023-12-22 07:52:19.318000128,0.05425198,-0.3110383,-0.004796498,0.01263428,0.0140963,-0.003674523,0.002141312,-0.0006515639,-0.002231374,0.19933691054,-0.0347852153999999,-0.2202232642,-1.073931,0.07384533,0.4580877
2023-12-22 07:52:19.332999936,0.05427235,-0.3111276,-0.00471669,0.01211039,0.004571825,-0.0005185467,0.0026057,-0.0007406857,-0.002520751,0.20194261054,-0.0355259010999999,-0.2227440152,-1.073889,0.07384085,0.4580626
2023-12-22 07:52:19.339000064,0.05424873,-0.3110872,-0.004670398,0.009153089,0.005278617,0.001823146,0.003064024,-0.0008073565,-0.002770473,0.20500663454,-0.0363332575999999,-0.2255144882,-1.073847,0.07383142,0.4580107
2023-12-22 07:52:19.352999936,0.05417462,-0.3111429,-0.004688575,0.004159483,0.0009547561,0.004089271,0.003238822,-0.001053523,-0.003068918,0.20824545654,-0.0373867805999999,-0.2285834062,-1.073825,0.07381856,0.4579405
2023-12-22 07:52:19.367000064,0.05406018,-0.3112155,-0.004681227,4.94674e-05,-0.002393645,0.007649187,0.003700546,-0.001244683,-0.003254339,0.21194600254,-0.0386314636,-0.2318377452,-1.073779,0.07380369,0.4578646
2023-12-22 07:52:19.380999936,0.05406718,-0.3113093,-0.004580221,0.004930459,-0.005495847,0.008439831,0.004213303,-0.001229979,-0.003340021,0.21615930554,-0.0398614426,-0.2351777662,-1.073683,0.07378959,0.4578024
2023-12-22 07:52:19.395000064,0.05413138,-0.3114269,-0.00464913,0.0037087,-0.00987837,0.002933909,0.004406713,-0.0004427286,-0.003266479,0.22056601854,-0.0403041711999999,-0.2384442452,-1.073595,0.07379875,0.4577572
2023-12-22 07:52:19.410000128,0.05438744,-0.3115183,-0.00468907,0.008018437,-0.01237495,-0.007759322,0.004565411,0.0001190442,-0.003162469,0.22513142954,-0.0401851269999999,-0.2416067142,-1.073521,0.07381938,0.4577072
2023-12-22 07:52:19.423000064,0.0545642,-0.3115092,-0.004686293,0.01013356,-0.008669484,-0.0119987,0.004924509,0.001247381,-0.003079618,0.23005593854,-0.0389377459999999,-0.2446863322,-1.07346,0.07387879,0.4576299
2023-12-22 07:52:19.436999936,0.05479845,-0.3116188,-0.004597363,0.01580919,-0.007784173,-0.01478777,0.005095106,0.001403387,-0.002888402,0.23515104454,-0.0375343589999999,-0.2475747342,-1.073399,0.07391545,0.4575737
2023-12-22 07:52:19.451000064,0.05484503,-0.3115799,-0.004521868,0.01605514,-0.006572695,-0.01148306,0.005139784,0.001078428,-0.002566335,0.24029082854,-0.036455931,-0.2501410692,-1.073353,0.07392897,0.4575493
2023-12-22 07:52:19.464000000,0.05485046,-0.3116166,-0.004487557,0.01282092,-0.005569876,-0.004768203,0.005059516,0.0004019908,-0.002303415,0.24535034454,-0.0360539401999999,-0.2524444842,-1.073313,0.07391856,0.4575282
2023-12-22 07:52:19.479000064,0.05470022,-0.3116224,-0.004224529,0.01459196,-0.00194153,0.008841193,0.005287399,-0.0007943895,-0.002009827,0.25063774354,-0.0368483296999999,-0.2544543112,-1.07324,0.07388267,0.4574973
2023-12-22 07:52:19.492000000,0.05450337,-0.3116688,-0.004090373,0.01083233,-0.001870018,0.01661855,0.005307772,-0.001950796,-0.001713376,0.25594551554,-0.0387991256999999,-0.2561676872,-1.073173,0.07382341,0.4574665
2023-12-22 07:52:19.506000128,0.054252,-0.3117267,-0.004004706,0.006400188,-0.001736598,0.0230468,0.005641187,-0.002467623,-0.001120554,0.26158670254,-0.0412667486999999,-0.2572882412,-1.073089,0.07377051,0.4574566
2023-12-22 07:52:19.520000000,0.05409405,-0.3118902,-0.003913899,0.006519934,-0.002907041,0.0220889,0.006047667,-0.003015752,-0.0004652461,0.26763436954,-0.0442825006999999,-0.2577534873,-1.073,0.07370941,0.4574711
2023-12-22 07:52:19.533999872,0.05384902,-0.3118371,-0.004028582,-0.0006275138,-0.005873163,0.02129159,0.006402788,-0.003084719,0.0002058902,0.2740371575399999,-0.0473672196999999,-0.2575475970999999,-1.072897,0.07364768,0.4574646
2023-12-22 07:52:19.548000000,0.05375239,-0.3119501,-0.003858546,-0.002683585,-0.007536479,0.02308045,0.006647528,-0.003170195,0.000831664,0.28068468554,-0.0505374146999999,-0.2567159330999999,-1.07281,0.07363456,0.4574979
2023-12-22 07:52:19.563000064,0.05366179,-0.3119833,-0.003962497,-0.003823884,-0.006368147,0.02033615,0.006824309,-0.003545327,0.001505516,0.2875089945399999,-0.0540827416999999,-0.2552104171,-1.072731,0.07359282,0.457549
2023-12-22 07:52:19.576000000,0.05361516,-0.3120092,-0.003902591,-0.006637627,-0.004929358,0.01592129,0.006905479,-0.003831892,0.002270431,0.2944144735399999,-0.0579146336999999,-0.2529399860999999,-1.072631,0.07354861,0.457596
2023-12-22 07:52:19.589999872,0.05347552,-0.3119634,-0.003940236,-0.00998776,-0.00106392,0.0144172,0.007172544,-0.003832315,0.003050497,0.3015870175399999,-0.0617469487,-0.2498894890999999,-1.072526,0.07350165,0.4576475
2023-12-22 07:52:19.604000000,0.05341111,-0.3119123,-0.003921647,-0.008712148,0.001830566,0.01223703,0.007428093,-0.004105637,0.004025316,0.3090151105399999,-0.0658525857,-0.2458641730999999,-1.072396,0.07344596,0.457704
2023-12-22 07:52:19.618000128,0.0532918,-0.3118259,-0.00375044,-0.003623378,0.006459616,0.01667784,0.007502871,-0.004673765,0.004613779,0.31651798154,-0.0705263506999999,-0.2412503940999999,-1.072286,0.07337618,0.4577745
2023-12-22 07:52:19.632000000,0.05295486,-0.3115768,-0.003486595,-0.006849417,0.0141784,0.02711639,0.007588175,-0.004995116,0.00501897,0.3241061565399999,-0.0755214666999999,-0.2362314240999999,-1.072202,0.07330872,0.4578374
2023-12-22 07:52:19.645999872,0.0527649,-0.3114043,-0.003574221,-0.008769517,0.01993737,0.02585967,0.007688778,-0.005351096,0.005518329,0.33179493454,-0.0808725626999999,-0.2307130950999999,-1.072102,0.07322138,0.4579197
2023-12-22 07:52:19.660000000,0.05272871,-0.3112676,-0.003373535,-0.0006593478,0.02251205,0.02364765,0.007729668,-0.005220439,0.006362985,0.33952460254,-0.0860930016999999,-0.2243501100999999,-1.072,0.07317288,0.4580348
2023-12-22 07:52:19.674000128,0.05279963,-0.3110957,-0.003248334,0.001149769,0.02634072,0.02040329,0.008103659,-0.004102444,0.007284,0.34762826154,-0.0901954456999999,-0.2170661100999999,-1.071886,0.07316608,0.4581412
2023-12-22 07:52:19.687000064,0.05287484,-0.3110176,-0.00322393,0.004895479,0.0261004,0.009268643,0.008562953,-0.003031707,0.00812402,0.3561912145399999,-0.0932271526999999,-0.2089420900999999,-1.071785,0.07316642,0.4582674
2023-12-22 07:52:19.700999936,0.05289166,-0.3108018,-0.002912245,0.01173169,0.02576581,0.009236689,0.00874945,-0.001988644,0.008778985,0.3649406645399999,-0.0952157966999999,-0.2001631050999999,-1.071689,0.07319674,0.4583863
2023-12-22 07:52:19.716000000,0.05285806,-0.3106959,-0.002763113,0.01485901,0.02755401,0.01452027,0.008999189,-0.001782526,0.009050224,0.37393985354,-0.0969983226999999,-0.1911128810999999,-1.071558,0.07320773,0.458528
2023-12-22 07:52:19.729000192,0.05246423,-0.310571,-0.002673442,0.007212721,0.02722559,0.01999335,0.009255121,-0.001775035,0.009319482,0.3831949745399999,-0.0987733576999999,-0.1817933990999999,-1.071425,0.07320209,0.4586737
2023-12-22 07:52:19.744000000,0.05233436,-0.3104297,-0.002767757,-0.003818881,0.02392957,0.01683764,0.009177143,-0.002150965,0.009575776,0.3923721175399999,-0.1009243226999999,-0.1722176230999999,-1.071305,0.07316671,0.4588033
2023-12-22 07:52:19.756999936,0.05220023,-0.3103423,-0.002693361,-0.004577674,0.02196199,0.01794722,0.009217967,-0.002048836,0.009845701,0.4015900845399999,-0.1029731586999999,-0.1623719220999999,-1.071192,0.07315344,0.4589294
2023-12-22 07:52:19.770999808,0.05217389,-0.3101585,-0.002544627,-0.005792171,0.02111898,0.01765111,0.00952647,-0.001411623,0.01011264,0.4111165545399999,-0.1043847816999999,-0.1522592820999999,-1.071063,0.07317019,0.4590478
2023-12-22 07:52:19.785000192,0.05219571,-0.3100871,-0.002426496,-0.001408456,0.01891625,0.01369612,0.009577552,-0.0009688463,0.0103356,0.4206941065399999,-0.1053536279999999,-0.1419236820999999,-1.070957,0.07319774,0.459218
2023-12-22 07:52:19.800000000,0.05207696,-0.3098908,-0.002130788,0.00543339,0.02191608,0.01556147,0.00988147,-0.0006579364,0.01042632,0.4305755765399999,-0.1060115643999999,-0.1314973620999999,-1.070851,0.07323171,0.4593851
2023-12-22 07:52:19.812999936,0.05210722,-0.3099394,-0.002061092,0.01016562,0.01974786,0.01396041,0.009776414,-0.000825265,0.01046188,0.4403519905399999,-0.1068368293999999,-0.1210354820999999,-1.070729,0.07322799,0.4595151
2023-12-22 07:52:19.826999808,0.05200196,-0.3098357,-0.001970646,0.01358375,0.01803876,0.01640472,0.01004739,-0.0006782705,0.01067605,0.4503993805399999,-0.1075150998999999,-0.1103594320999999,-1.070596,0.07323062,0.4596411
2023-12-22 07:52:19.841000192,0.05204659,-0.3097822,-0.001668246,0.01545728,0.01545357,0.01618472,0.01032512,-0.0006347389,0.01084061,0.4607245005399999,-0.1081498387999999,-0.0995188220999999,-1.070456,0.07324874,0.4597838
2023-12-22 07:52:19.855000064,0.0518632,-0.3098082,-0.001280661,0.0168077,0.01224909,0.02374719,0.01064193,-0.0002659152,0.01093228,0.47136643054,-0.1084157539999999,-0.0885865420999999,-1.070292,0.07328647,0.4599521
2023-12-22 07:52:19.868999936,0.05173197,-0.3097964,-0.001467463,0.009616529,0.006022845,0.02102634,0.01105565,-0.000627655,0.01105517,0.48242208054,-0.1090434089999999,-0.0775313720999999,-1.070129,0.07326368,0.4601243
2023-12-22 07:52:19.882999808,0.05156983,-0.3099582,-0.001255049,0.002137011,0.0002478138,0.02602176,0.01162853,-0.0005174272,0.01101744,0.49405061054,-0.1095608361999999,-0.0665139320999999,-1.069933,0.07327805,0.460267
2023-12-22 07:52:19.897000192,0.0515935,-0.310176,-0.001119062,0.01013063,-0.009209575,0.02410397,0.01224872,-0.001242315,0.01129651,0.5062993305400001,-0.1108031511999999,-0.0552174220999999,-1.069747,0.07325582,0.4604268
2023-12-22 07:52:19.911000064,0.05146176,-0.3105882,-0.0006482331,0.02001191,-0.02079389,0.03203947,0.0128486,-0.001300267,0.01178451,0.5191479305400001,-0.1121034181999999,-0.0434329120999999,-1.069518,0.07327756,0.4605952
2023-12-22 07:52:19.924999936,0.05146039,-0.3110629,-0.0003767158,0.0264469,-0.03099981,0.03080468,0.01378562,-0.001819902,0.01193633,0.5329335505400001,-0.1139233201999999,-0.0314965820999999,-1.069259,0.0732711,0.4607635
2023-12-22 07:52:19.938999808,0.05123882,-0.3114312,-0.0003209887,0.01916415,-0.03908478,0.03388811,0.01476493,-0.002271076,0.01228623,0.5476984805400001,-0.1161943961999999,-0.0192103520999999,-1.068999,0.07323387,0.4609361
2023-12-22 07:52:19.953000192,0.05091107,-0.3117433,-0.000203596,0.01624997,-0.04910643,0.03973779,0.01553147,-0.002983343,0.01246454,0.5632299505400001,-0.1191777391999999,-0.0067458120999999,-1.068667,0.07314695,0.4611011
2023-12-22 07:52:19.967000064,0.0506121,-0.3123919,9.957748e-05,0.01371129,-0.05907086,0.04794882,0.01627452,-0.00353793,0.01243409,0.5795044705400001,-0.1227156691999999,0.0056882779,-1.068399,0.07308808,0.4612651
2023-12-22 07:52:19.980999936,0.05026406,-0.3131368,0.000375892,0.008845685,-0.06865555,0.05313864,0.01689295,-0.003913294,0.01233623,0.5963974205400001,-0.1266289631999999,0.0180245079,-1.068144,0.07304189,0.461504
2023-12-22 07:52:19.994999808,0.04996187,-0.313731,0.0007168017,0.009655172,-0.08051,0.06040889,0.01707025,-0.00445853,0.01201084,0.6134676705400001,-0.1310874931999999,0.0300353479,-1.06784,0.07297605,0.4616668
2023-12-22 07:52:20.008999936,0.04976686,-0.3146005,0.000977884,0.01496825,-0.0880807,0.06401762,0.01722575,-0.004943511,0.01156952,0.6306934205400001,-0.1360310041999999,0.0416048679,-1.067633,0.07289557,0.4618976
2023-12-22 07:52:20.023000064,0.04949137,-0.3153855,0.001110219,0.01072659,-0.09354789,0.06665279,0.0171775,-0.004699277,0.01141944,0.6478709205400001,-0.1407302811999999,0.0530243079,-1.067413,0.07281975,0.4621246
2023-12-22 07:52:20.036999936,0.04927212,-0.3160477,0.001381184,0.01452499,-0.09793232,0.0626978,0.01690525,-0.004700725,0.01151634,0.66477617054,-0.1454310061999999,0.0645406479,-1.06714,0.07278229,0.4623339
2023-12-22 07:52:20.051000064,0.04919893,-0.3168961,0.001600923,0.01662698,-0.1008363,0.05805218,0.01636501,-0.004663128,0.01148885,0.6811411805400001,-0.1500941341999999,0.0760294979,-1.066969,0.07267709,0.4625441
2023-12-22 07:52:20.064000000,0.04882622,-0.3175952,0.001926289,0.01790763,-0.1031031,0.06309795,0.01575695,-0.004539151,0.01137473,0.69689813054,-0.1546332851999999,0.0874042279,-1.066702,0.07264618,0.4627803
2023-12-22 07:52:20.079000064,0.04875128,-0.3184234,0.002246066,0.02375904,-0.1065899,0.06407386,0.01481323,-0.00477937,0.01091217,0.7117113605400001,-0.1594126551999999,0.0983163979,-1.066506,0.07259566,0.4629633
2023-12-22 07:52:20.092000000,0.04840663,-0.3194364,0.002613401,0.02478929,-0.1112232,0.06482898,0.01361717,-0.004819856,0.01024198,0.72532853054,-0.1642325111999999,0.1085583779,-1.066298,0.07255707,0.4631262
2023-12-22 07:52:20.105999872,0.0480144,-0.3200695,0.002691032,0.016689,-0.1136193,0.06715135,0.01221614,-0.004463246,0.009509145,0.7375446705400001,-0.1686957571999999,0.1180675229,-1.066139,0.07251823,0.4632664
2023-12-22 07:52:20.120000000,0.04771369,-0.3208435,0.002851526,0.009740215,-0.1121082,0.0649382,0.01055849,-0.004015139,0.008908685,0.74810316054,-0.1727108961999999,0.1269762079,-1.06601,0.07250213,0.4634267
2023-12-22 07:52:20.134000128,0.0477099,-0.3216053,0.002885873,0.0009362679,-0.1108173,0.05013042,0.008843842,-0.003005728,0.008874537,0.75694700254,-0.1757166241999999,0.1358507449,-1.065896,0.072514,0.4635916
2023-12-22 07:52:20.148000000,0.04768063,-0.3222289,0.002696231,0.002644987,-0.1076783,0.03569097,0.006960019,-0.001480354,0.008988141,0.76390702154,-0.1771969781999999,0.1448388859,-1.065842,0.07252421,0.4637568
2023-12-22 07:52:20.161999872,0.047748,-0.3226383,0.002782689,0.00412571,-0.09667194,0.02367189,0.005330046,-0.0002101024,0.009182673,0.76923706754,-0.1774070805999999,0.1540215589,-1.065818,0.07256053,0.4639218
2023-12-22 07:52:20.176000000,0.04794043,-0.3231212,0.002566691,0.00563827,-0.09090152,0.01557222,0.003003571,0.0004626111,0.009458785,0.77224063854,-0.1769444694999999,0.1634803439,-1.065834,0.07257386,0.4641028
2023-12-22 07:52:20.190000128,0.04783312,-0.3234631,0.002483728,0.003719353,-0.07999494,0.007022754,0.0007455641,0.00052095,0.009753916,0.7729862026400001,-0.1764235194999999,0.1732342599,-1.065889,0.07257374,0.4642884
2023-12-22 07:52:20.204000000,0.04791682,-0.3236812,0.002178256,-0.006224571,-0.06381585,-0.0009464933,-0.001675661,0.0004762132,0.01048668,0.77131054164,-0.1759473062999999,0.1837209399,-1.065976,0.07256003,0.4644819
2023-12-22 07:52:20.217999872,0.04784578,-0.3237691,0.002174425,-0.01203645,-0.04953168,-0.005330369,-0.004094798,0.0005761006,0.01134698,0.76721574364,-0.1753712056999999,0.1950679199,-1.066104,0.07256109,0.4646746
2023-12-22 07:52:20.232000000,0.04788465,-0.323674,0.001908557,-0.01688113,-0.03084315,-0.0055966,-0.006423302,0.0006301292,0.01242708,0.76079244164,-0.1747410764999999,0.2074949999000001,-1.066263,0.07254717,0.464865
2023-12-22 07:52:20.246000128,0.04764683,-0.3235479,0.001666084,-0.02297452,-0.01846487,-0.006505953,-0.008667832,0.0004845349,0.01358974,0.75212460964,-0.1742565415999999,0.2210847399,-1.066457,0.07253515,0.465107
2023-12-22 07:52:20.260000000,0.04777078,-0.3233441,0.001421305,-0.02723485,-0.001475103,-0.01412502,-0.01028819,-0.0001428227,0.01471861,0.74183641964,-0.1743993642999999,0.2358033499,-1.066649,0.07251394,0.4653677
2023-12-22 07:52:20.273999872,0.04762098,-0.3232076,0.001324603,-0.02764168,0.008796453,-0.008836873,-0.01183516,-0.0004582138,0.01598331,0.7300012596400001,-0.1748575780999999,0.2517866599,-1.066876,0.07249156,0.465637
2023-12-22 07:52:20.288000000,0.04749897,-0.3229979,0.001169892,-0.02744012,0.0217556,-0.01144541,-0.0128803,-0.0009667248,0.01692186,0.7171209596400001,-0.1758243028999999,0.2687085199,-1.067163,0.07246352,0.4659511
2023-12-22 07:52:20.302000128,0.04752029,-0.3226522,0.001095449,-0.02301401,0.02640481,-0.007533198,-0.01398553,-0.00129609,0.0177473,0.7031354296400001,-0.1771203928999999,0.2864558199000001,-1.067429,0.07236022,0.4662098
2023-12-22 07:52:20.315000064,0.04722194,-0.3224682,0.001019259,-0.02252538,0.03031241,0.005453744,-0.01513161,-0.001685008,0.01808615,0.6880038196400001,-0.1788054008999999,0.3045419699000001,-1.067711,0.07229349,0.466433
2023-12-22 07:52:20.328999936,0.0466071,-0.322071,0.0008754772,-0.03407206,0.03684887,0.01492187,-0.01594304,-0.002247719,0.0178151,0.6720607796400001,-0.1810531198999999,0.3223570699000001,-1.067969,0.07228706,0.4666558
2023-12-22 07:52:20.342999808,0.04623212,-0.3219861,0.0006987364,-0.04352405,0.03508996,0.02259083,-0.01694809,-0.002585241,0.01734644,0.6551126896400001,-0.1836383608999999,0.3397035099000001,-1.068266,0.07220286,0.466881
2023-12-22 07:52:20.357000192,0.04583777,-0.3218173,0.000579671,-0.04835244,0.03632192,0.0244934,-0.01719626,-0.002685292,0.01681647,0.6379164296400002,-0.1863236528999999,0.3565199799000002,-1.068521,0.07215811,0.4670864
2023-12-22 07:52:20.371000064,0.04575426,-0.3216965,0.0003918507,-0.04380527,0.03080123,0.02413286,-0.01735741,-0.002662172,0.01620495,0.6205590196400002,-0.1889858248999999,0.3727249299000001,-1.068761,0.07206016,0.467286
2023-12-22 07:52:20.384999936,0.04558008,-0.321553,0.0002318509,-0.03890197,0.02608889,0.01933747,-0.01715167,-0.002692252,0.01565973,0.6034073496400002,-0.1916780768999999,0.3883846599000001,-1.068998,0.07202001,0.4675084
2023-12-22 07:52:20.398999808,0.04539536,-0.3214943,0.0002123825,-0.03146792,0.01866256,0.01552545,-0.01700534,-0.00249843,0.01531611,0.5864020096400002,-0.1941765068999999,0.4037007699000001,-1.069227,0.0720176,0.4677453
2023-12-22 07:52:20.413000192,0.04554825,-0.3214018,-0.0001161965,-0.0253748,0.01762565,0.001773307,-0.01664534,-0.002269761,0.01497704,0.5697566696400003,-0.1964462678999999,0.4186778099000001,-1.069464,0.07197168,0.4679634
2023-12-22 07:52:20.427000064,0.04544042,-0.3212624,-0.0001280913,-0.02369017,0.01259098,-0.003877299,-0.01672123,-0.001929799,0.01491511,0.5530354396400002,-0.1983760668999999,0.4335929199000001,-1.06966,0.07197462,0.4681433
2023-12-22 07:52:20.440999936,0.04525805,-0.3212224,-9.307032e-05,-0.01825796,0.01262021,0.0009231909,-0.01675617,-0.001933749,0.01435415,0.5362792696400003,-0.2003098159,0.4479470699000001,-1.069908,0.07196054,0.4683428
2023-12-22 07:52:20.453999872,0.04503604,-0.3210869,-0.0002395851,-0.02040232,0.01443385,0.005686374,-0.01719613,-0.002420471,0.01361548,0.5190831396400003,-0.2027302869,0.4615625499000002,-1.070135,0.07189848,0.4684913
2023-12-22 07:52:20.468000000,0.04487181,-0.3211583,-4.535401e-05,-0.01952054,0.01558498,0.01133842,-0.01760506,-0.003048952,0.01271757,0.5014780796400004,-0.2057792389,0.4742801199000002,-1.070391,0.07187812,0.4686647
2023-12-22 07:52:20.482000128,0.04458395,-0.3208104,-0.0005361806,-0.0272253,0.01754883,0.01568115,-0.01788162,-0.0028191,0.01233456,0.4835964596400003,-0.2085983388999999,0.4866146799000002,-1.070638,0.07183446,0.4688158
2023-12-22 07:52:20.496000000,0.04456002,-0.3205976,-0.0004290519,-0.03009432,0.02124943,0.008932303,-0.01804891,-0.002152302,0.01207529,0.4655475496400003,-0.2107506408999999,0.4986899699000002,-1.070873,0.0718484,0.4689817
2023-12-22 07:52:20.509999872,0.04468905,-0.3206456,-0.0005868576,-0.0222937,0.02223356,-0.001216614,-0.01810306,-0.001379682,0.01215429,0.4474444896400003,-0.2121303228999999,0.5108442599000002,-1.07119,0.07183737,0.4691865
2023-12-22 07:52:20.524000000,0.04482094,-0.3204104,-0.0003644209,-0.01065547,0.02484186,-0.003876567,-0.01801893,-0.0006274394,0.01212527,0.4294255596400003,-0.2127577623,0.5229695299000001,-1.071385,0.07178707,0.4693046
2023-12-22 07:52:20.538000128,0.04475238,-0.3202437,-0.0005657324,-0.0113417,0.02380485,-0.006163224,-0.01820787,-0.0004892766,0.0119203,0.4112176896400003,-0.2132470389,0.5348898299000001,-1.071636,0.0717474,0.4694607
2023-12-22 07:52:20.552000000,0.04473695,-0.3199349,-0.0007246039,-0.0143827,0.02561847,-0.006091745,-0.01841045,-0.0004134715,0.01146272,0.3928072396400003,-0.2136605104,0.5463525499000002,-1.071885,0.07171817,0.4695652
2023-12-22 07:52:20.564999936,0.04457944,-0.3197555,-0.0008087261,-0.01039952,0.0290923,-0.005340206,-0.01850413,-0.0002578195,0.01089784,0.3743031096400003,-0.2139183299,0.5572503899000002,-1.072167,0.07177305,0.4697205
2023-12-22 07:52:20.579000064,0.04470946,-0.3196079,-0.00088443,-0.01568529,0.03030663,-0.005840154,-0.01842834,-4.448765e-05,0.01048521,0.3558747696400003,-0.21396281755,0.5677355999000002,-1.072476,0.07169098,0.4698538
2023-12-22 07:52:20.592999936,0.04460801,-0.3193832,-0.001164805,-0.01761571,0.02846423,-0.008390093,-0.01815815,0.0003168127,0.009892185,0.3377166196400003,-0.21364600485,0.5776277849000002,-1.072697,0.07172978,0.4699967
2023-12-22 07:52:20.607000064,0.04464771,-0.3191878,-0.001188236,-0.01524602,0.02562219,-0.01077387,-0.01778795,0.0009355075,0.009482641,0.3199286696400003,-0.21271049735,0.5871104259000002,-1.072915,0.0717657,0.470116
2023-12-22 07:52:20.620999936,0.04481271,-0.3190509,-0.001107191,-0.01132694,0.02670379,-0.01536236,-0.0168898,0.001477521,0.008964978,0.3030388696400003,-0.21123297635,0.5960754039000001,-1.07313,0.07177336,0.4702397
2023-12-22 07:52:20.635000064,0.04480513,-0.3188504,-0.001378411,-0.008721112,0.02490548,-0.01775913,-0.01616834,0.002006852,0.008674709,0.2868705296400003,-0.20922612435,0.6047501129000001,-1.073335,0.07179811,0.4703512
2023-12-22 07:52:20.648999936,0.04494499,-0.3188026,-0.001418483,-0.007072949,0.01895028,-0.02001919,-0.01578726,0.002211328,0.00850435,0.2710832696400003,-0.20701479635,0.6132544629000002,-1.073515,0.07182776,0.4704867
2023-12-22 07:52:20.663000064,0.04516134,-0.3186763,-0.001467327,-0.003731261,0.02024663,-0.02255353,-0.01481561,0.002132204,0.008360279,0.2562676596400003,-0.20488259235,0.6216147419000002,-1.073667,0.07184998,0.4706159
2023-12-22 07:52:20.676999936,0.04528205,-0.3186248,-0.001481705,-0.002210935,0.01772135,-0.02186822,-0.01383247,0.002083002,0.0084162,0.2424351896400003,-0.20279959035,0.6300309419000002,-1.073821,0.0718735,0.4707445
2023-12-22 07:52:20.691000064,0.04531504,-0.3184918,-0.001557031,-0.005213833,0.01515956,-0.02134529,-0.01296851,0.002093969,0.008485157,0.2294666796400003,-0.20070562135,0.6385160989000002,-1.073955,0.07189277,0.4708483
2023-12-22 07:52:20.704999936,0.04532677,-0.3183252,-0.001822086,-0.006035102,0.01433798,-0.01926877,-0.01189281,0.001990683,0.008648784,0.2175738696400003,-0.19871493835,0.6471648829000002,-1.074076,0.07189257,0.4709624
2023-12-22 07:52:20.719000064,0.04528311,-0.3183258,-0.001763889,-0.006862252,0.01028976,-0.01575357,-0.01117941,0.001462947,0.008693042,0.2063944596400003,-0.19725199135,0.6558579249000002,-1.074219,0.07187673,0.4711112
2023-12-22 07:52:20.732000000,0.04532641,-0.3183086,-0.001886165,-0.009325113,0.007810943,-0.009529671,-0.0104771,0.0006311186,0.008518892,0.1959173596400003,-0.19662087275,0.6643768169000002,-1.074329,0.07183333,0.4712355
2023-12-22 07:52:20.747000064,0.04518083,-0.3182832,-0.001956027,-0.01282938,0.006694023,-0.002635147,-0.009649388,0.0001273917,0.008364106,0.1862679716400003,-0.19649348105,0.6727409229000002,-1.074442,0.07180054,0.4713769
2023-12-22 07:52:20.760999936,0.04512676,-0.3183285,-0.002084887,-0.01420865,0.002553402,-0.004823244,-0.008884246,-0.0001213647,0.008400265,0.1773837256400003,-0.19661484575,0.6811411879000002,-1.074546,0.07177388,0.4715249
2023-12-22 07:52:20.773999872,0.04520852,-0.3182861,-0.002292757,-0.01599121,0.001641117,-0.01079079,-0.007958677,-1.918752e-05,0.008652186,0.1694250486400003,-0.1966340332699999,0.6897933739000002,-1.074634,0.0717475,0.47167
2023-12-22 07:52:20.788000000,0.04538585,-0.3182266,-0.002506061,-0.01882615,0.002079955,-0.01609394,-0.007010311,0.0002180711,0.009063694,0.1624147376400003,-0.1964159621699999,0.6988570679000001,-1.074659,0.07173533,0.4718063
2023-12-22 07:52:20.802000128,0.04547176,-0.3182492,-0.002684954,-0.01330195,0.001918857,-0.01561121,-0.006020094,0.0002527148,0.009381777,0.1563946436400003,-0.19616324737,0.7082388449000001,-1.074685,0.07171807,0.4719529
2023-12-22 07:52:20.816999936,0.04538792,-0.3181517,-0.0026269,-0.01282012,0.004000735,-0.01569033,-0.005112306,-0.0002030166,0.009333898,0.1512823376400003,-0.1963662639699999,0.7175727429000001,-1.074735,0.07170001,0.4720803
2023-12-22 07:52:20.829999872,0.04536728,-0.3181337,-0.002662195,-0.00757051,0.003098901,-0.007431001,-0.004338294,-0.0008489706,0.009178253,0.1469440436400003,-0.1972152345699999,0.7267509959,-1.074778,0.0716655,0.4722083
2023-12-22 07:52:20.844000000,0.04516798,-0.3181064,-0.002723737,-0.01341555,0.003644341,0.0008495884,-0.003443745,-0.001323999,0.009146756,0.1435002986400003,-0.1985392335699999,0.7358977519000001,-1.074785,0.07161932,0.4723525
2023-12-22 07:52:20.858000128,0.04488145,-0.3180552,-0.002838754,-0.02174878,0.006635666,0.0003931683,-0.002307469,-0.001552028,0.009278556,0.1411928296400003,-0.2000912615699999,0.7451763079000001,-1.074762,0.07156637,0.472515
2023-12-22 07:52:20.872000000,0.04496699,-0.3179749,-0.002852085,-0.01257685,0.006842031,0.004103402,-0.001135309,-0.001864754,0.009625454,0.1400575206400003,-0.2019560155699999,0.7548017619000001,-1.074733,0.07152072,0.4726918
2023-12-22 07:52:20.885999872,0.04485632,-0.3179601,-0.002926305,-0.01434179,0.005084299,0.004884724,-0.0001919616,-0.001359117,0.01002744,0.1398655590400003,-0.2033151325699999,0.7648292019000001,-1.074708,0.07150955,0.4728604
2023-12-22 07:52:20.900000000,0.04492459,-0.3179016,-0.002917261,-0.007126319,0.005461058,0.0002445028,0.001176423,-0.001158445,0.01039822,0.1410419820400003,-0.2044735775699999,0.7752274219000002,-1.074625,0.07150196,0.473023
2023-12-22 07:52:20.914000128,0.04490013,-0.3178831,-0.002736286,0.002455487,0.00564946,0.006305286,0.00205874,-0.0005520945,0.01073462,0.1431007220400003,-0.2050256720699999,0.7859620419000002,-1.074576,0.07150132,0.4732303
2023-12-22 07:52:20.928000000,0.04483568,-0.3179125,-0.00262302,0.004102354,0.00322203,0.01035186,0.002781371,-0.000504492,0.01080548,0.1458820930400003,-0.2055301640699999,0.7967675219000002,-1.074521,0.07147896,0.4734176
2023-12-22 07:52:20.941999872,0.04469763,-0.3178814,-0.002669888,-0.002710664,0.003696815,0.01057192,0.003792018,-0.0004202262,0.01073929,0.1496741110400003,-0.2059503902699999,0.8075068119000002,-1.074453,0.07146323,0.4735844
2023-12-22 07:52:20.954999808,0.04451859,-0.3179023,-0.002767587,-0.01052863,0.001160337,0.01191478,0.004654813,0.0002027975,0.01087325,0.1543289240400003,-0.20574759277,0.8183800619000001,-1.07434,0.07146625,0.473737
2023-12-22 07:52:20.969000192,0.04453078,-0.3179474,-0.002834327,-0.00925691,-0.001522343,0.005877207,0.005695688,0.0003152907,0.01106678,0.1600246120400003,-0.20543230207,0.8294468419000002,-1.074222,0.07146206,0.4739065
2023-12-22 07:52:20.983000064,0.04449464,-0.3180779,-0.002919261,-0.009810925,-0.008050362,0.003026567,0.006538469,0.0007163645,0.01152284,0.1665630810400003,-0.2047159375699999,0.8409696819000002,-1.07412,0.07148366,0.4741178
2023-12-22 07:52:20.996999936,0.04448028,-0.318191,-0.002983155,-0.008943557,-0.01158393,0.001399238,0.007636119,0.00116818,0.01213195,0.1741992000400003,-0.20354775757,0.8531016319000002,-1.073969,0.07151236,0.4743205
2023-12-22 07:52:21.010999808,0.04461583,-0.318329,-0.003019085,-0.003391405,-0.01524307,-0.004435262,0.008651321,0.001269106,0.01306396,0.1828505210400003,-0.20227865157,0.8661655919000002,-1.073828,0.07152195,0.4745479
2023-12-22 07:52:21.025000192,0.04480349,-0.3184415,-0.003034539,0.002924473,-0.01692552,-0.01135115,0.009674877,0.0009849867,0.01405439,0.1925253980400003,-0.20129366487,0.8802199819000002,-1.073684,0.07151615,0.4747908
2023-12-22 07:52:21.039000064,0.04481889,-0.3185272,-0.003168106,-0.002939603,-0.01553414,-0.009828472,0.01039498,0.0006897381,0.01526854,0.2029203780400003,-0.20060392677,0.8954885219000002,-1.073538,0.07149653,0.4750571
2023-12-22 07:52:21.053999872,0.04479763,-0.3185621,-0.003203994,-0.004384499,-0.01180115,-0.00616228,0.0107836,-0.0004793428,0.01651511,0.2137039780400003,-0.20108326957,0.9120036319000002,-1.073399,0.07144257,0.4753442
2023-12-22 07:52:21.066999808,0.04457666,-0.3186358,-0.003145696,-0.007144185,-0.010717,0.007382598,0.0107642,-0.001767431,0.01801297,0.2244681780400003,-0.20285070057,0.9300166019000002,-1.073268,0.07133878,0.4757062
2023-12-22 07:52:21.081000192,0.04432838,-0.3185673,-0.003144118,-0.01232292,-0.002725251,0.01512616,0.01138064,-0.00305998,0.01957395,0.2358488180400003,-0.20591068057,0.9495905519000002,-1.073076,0.0712661,0.4760408
2023-12-22 07:52:21.095000064,0.04386907,-0.3184845,-0.003249553,-0.02457607,0.002349641,0.01781657,0.01167962,-0.003600476,0.02123168,0.2475284380400003,-0.20951115657,0.9708222319000002,-1.072902,0.07125828,0.4763842
2023-12-22 07:52:21.108999936,0.04374013,-0.3183765,-0.003441953,-0.02844646,0.006517355,0.01854265,0.01215453,-0.003782774,0.02347919,0.2596829680400003,-0.2132939305699999,0.9943014219,-1.072716,0.07116637,0.4767705
2023-12-22 07:52:21.121999872,0.04358786,-0.3183723,-0.003328171,-0.0239195,0.006587355,0.01871319,0.012027,-0.00396871,0.02567907,0.2717099680400003,-0.21726264057,1.0199804919000002,-1.072546,0.07110716,0.4772061
2023-12-22 07:52:21.136000000,0.04329078,-0.3181521,-0.003576092,-0.0263581,0.01697126,0.01926606,0.01207993,-0.004203701,0.02776444,0.2837898980400004,-0.22146634157,1.0477449319,-1.072397,0.07101774,0.4776539
2023-12-22 07:52:21.150000128,0.04293283,-0.3177341,-0.00394882,-0.04165154,0.02358826,0.01427116,0.01116608,-0.004648536,0.03014288,0.2949559780400004,-0.22611487757,1.0778878119000002,-1.072255,0.07092717,0.4781299
2023-12-22 07:52:21.164000000,0.04280293,-0.3172388,-0.004108735,-0.04679541,0.04103437,0.01004959,0.01026246,-0.005028572,0.03260409,0.3052184380400004,-0.23114344957,1.1104919019,-1.072136,0.07082956,0.4786138
2023-12-22 07:52:21.177999872,0.04244572,-0.3168309,-0.004384352,-0.05246713,0.05429716,0.008337872,0.009296712,-0.004898561,0.03512217,0.3145151500400003,-0.23604201057,1.1456140719,-1.072072,0.07077576,0.4791567
2023-12-22 07:52:21.192000000,0.0421871,-0.3161104,-0.004657781,-0.05424341,0.06778281,0.008815534,0.00878971,-0.004863649,0.03722379,0.3233048600400003,-0.24090565957,1.1828378619000002,-1.071952,0.07067595,0.4796484
2023-12-22 07:52:21.206000128,0.04194621,-0.3155956,-0.004865856,-0.05169323,0.07801275,0.004233037,0.008332331,-0.005168931,0.03915145,0.3316371910400004,-0.24607459057,1.2219893119000005,-1.071898,0.07060706,0.4802251
2023-12-22 07:52:21.220000000,0.04173706,-0.3149409,-0.004803274,-0.04695704,0.08141563,0.009718761,0.007901398,-0.005199177,0.04105726,0.3395385890400004,-0.25127376757,1.2630465719000004,-1.071769,0.07052416,0.4808086
2023-12-22 07:52:21.233999872,0.04147395,-0.314357,-0.004864381,-0.04391596,0.08840504,0.01225429,0.00810039,-0.005319216,0.04255806,0.3476389790400004,-0.25659298357,1.3056046319000003,-1.071638,0.07045911,0.4813889
2023-12-22 07:52:21.248000000,0.0412202,-0.3136429,-0.004778554,-0.03726454,0.08809073,0.01982414,0.008661613,-0.005174577,0.04410348,0.3563005920400004,-0.26176756057,1.3497081119000005,-1.071436,0.07039078,0.4820036
2023-12-22 07:52:21.262000128,0.04100091,-0.3131641,-0.004891773,-0.03541344,0.08433989,0.01849463,0.009510243,-0.005225783,0.04548328,0.3658108350400004,-0.26699334357,1.3951913919000003,-1.07127,0.07031322,0.48266
2023-12-22 07:52:21.276000000,0.04059112,-0.3128062,-0.005075982,-0.03442812,0.07645098,0.02063766,0.01061561,-0.00500219,0.04681582,0.3764264450400004,-0.27199553357,1.4420072119000005,-1.071113,0.07027164,0.4833492
2023-12-22 07:52:21.289999872,0.04034025,-0.3125799,-0.005005979,-0.03351083,0.06532469,0.0207032,0.01196866,-0.00462513,0.04810407,0.3883951050400004,-0.27662066357,1.4901112819000002,-1.070932,0.07024261,0.4840643
2023-12-22 07:52:21.303000064,0.04024899,-0.3123585,-0.004989598,-0.02777137,0.04977613,0.02036488,0.01343426,-0.004190756,0.04936468,0.4018293650400004,-0.28081141957,1.5394759619000002,-1.070681,0.07021218,0.4847841
2023-12-22 07:52:21.316999936,0.04011368,-0.312333,-0.005042622,-0.02250696,0.03538676,0.01534958,0.01520573,-0.003695557,0.05050848,0.4170350950400003,-0.28450697657,1.5899844419000002,-1.070413,0.07016797,0.4855118
2023-12-22 07:52:21.331000064,0.04006763,-0.3124481,-0.005264672,-0.02423334,0.0193197,0.009411024,0.01677998,-0.003173205,0.05187241,0.4338150750400004,-0.2876801815700001,1.6418568519000003,-1.070163,0.0700729,0.4862874
2023-12-22 07:52:21.344999936,0.03987208,-0.3126727,-0.00546306,-0.02774866,0.002621526,0.008534046,0.0181096,-0.002787604,0.05347286,0.4519246750400004,-0.2904677855700001,1.6953297119000004,-1.069884,0.07001724,0.4871054
2023-12-22 07:52:21.359000064,0.03982398,-0.3128527,-0.005621957,-0.02837683,-0.01038565,0.004897413,0.01927382,-0.002853043,0.05518913,0.4711984950400004,-0.2933208285700001,1.7505188419000004,-1.069568,0.0699643,0.4879109
2023-12-22 07:52:21.372999936,0.03983569,-0.3129923,-0.005843999,-0.02811454,-0.01813698,0.002237724,0.02053416,-0.002843781,0.05723886,0.4917326550400004,-0.29616460957,1.8077577019000004,-1.069223,0.06988936,0.4887601
2023-12-22 07:52:21.387000064,0.03973027,-0.3131752,-0.005993191,-0.02438684,-0.02559233,-0.003852441,0.02124539,-0.003252502,0.05970598,0.5129780450400004,-0.29941711157,1.8674636819000003,-1.0689,0.06985559,0.4896756
2023-12-22 07:52:21.400999936,0.03964251,-0.3133505,-0.006113979,-0.02421977,-0.02344073,-0.002841962,0.02211355,-0.003502975,0.06249558,0.5350915950400005,-0.3029200865700001,1.9299592619000003,-1.06857,0.0698044,0.4906344
2023-12-22 07:52:21.415000064,0.03948564,-0.3135406,-0.006145949,-0.02371465,-0.02461332,0.001859132,0.02249511,-0.003780463,0.06572457,0.5575867050400005,-0.3067005495700001,1.9956838319000003,-1.068265,0.06973414,0.4916283
2023-12-22 07:52:21.428999936,0.03947569,-0.3135586,-0.006077027,-0.01575101,-0.02204622,0.007451875,0.02294189,-0.004309835,0.06889087,0.5805285950400005,-0.3110103845700001,2.0645747019000003,-1.067925,0.06961672,0.4926485
2023-12-22 07:52:21.443000064,0.03921327,-0.3137805,-0.006085557,-0.007196865,-0.02290264,0.01234563,0.02356068,-0.005003376,0.0724979,0.6040892750400005,-0.3160137605700001,2.1370726019000004,-1.067577,0.06956746,0.4937863
2023-12-22 07:52:21.456999936,0.03919816,-0.3139217,-0.006186493,-0.01221745,-0.02065312,0.01176286,0.0241928,-0.005412591,0.07599897,0.6282820750400006,-0.3214263515700001,2.2130715719000005,-1.067232,0.06944102,0.4949748
2023-12-22 07:52:21.471000064,0.0390002,-0.3141371,-0.0061609,-0.01174074,-0.02621968,0.01342837,0.02453871,-0.006112878,0.08009787,0.6528207850400005,-0.3275392295700001,2.2931694419000004,-1.066882,0.06932922,0.4962264
2023-12-22 07:52:21.484000000,0.03876057,-0.314318,-0.006188748,-0.01426908,-0.02562053,0.01817935,0.02489696,-0.006108634,0.08415047,0.6777177450400005,-0.3336478635700001,2.3773199119000004,-1.06651,0.06927147,0.4975194
2023-12-22 07:52:21.497999872,0.0387225,-0.3145253,-0.006316085,-0.01470636,-0.02554316,0.01247114,0.0254867,-0.00620825,0.08858293,0.7032044450400005,-0.3398561135700001,2.4659028419,-1.066142,0.0691755,0.4988555
2023-12-22 07:52:21.512000000,0.03869252,-0.3146802,-0.006236756,-0.0121704,-0.02502596,0.0120987,0.02584475,-0.006002449,0.09288263,0.7290491950400004,-0.3458585625700001,2.5587854719000003,-1.06576,0.06909213,0.5002483
2023-12-22 07:52:21.528000000,0.03847561,-0.3147835,-0.006373258,-0.01338483,-0.02474179,0.01614629,0.02607682,-0.005801187,0.09702455,0.7551260150400004,-0.3516597495700001,2.6558100219000003,-1.065374,0.06898415,0.5017224
2023-12-22 07:52:21.540000000,0.03818472,-0.3149282,-0.006566045,-0.01994922,-0.02322878,0.01627103,0.02622814,-0.006268976,0.1008488,0.7813541550400004,-0.3579287255700001,2.7566588219000003,-1.065004,0.06888691,0.5032324
2023-12-22 07:52:21.553999872,0.03783431,-0.3149998,-0.006542777,-0.02949509,-0.01990532,0.0198503,0.02626551,-0.006460321,0.104811,0.8076196650400004,-0.3643890465700001,2.8614698219000005,-1.064616,0.06878757,0.5047858
2023-12-22 07:52:21.568000000,0.03770912,-0.3151153,-0.006835224,-0.03426374,-0.01663911,0.01930436,0.02616348,-0.006804081,0.1087209,0.8337831450400004,-0.3711931275700001,2.9701907219000003,-1.064247,0.06861132,0.5063761
2023-12-22 07:52:21.582000128,0.03736811,-0.3151076,-0.006956517,-0.03695274,-0.01055568,0.02140323,0.02643963,-0.006723462,0.1128413,0.8602227750400004,-0.3779165895700001,3.0830320219000003,-1.063876,0.06850856,0.5080496
2023-12-22 07:52:21.596000000,0.03711354,-0.3151875,-0.007179058,-0.04016847,-0.01092428,0.02046654,0.02646256,-0.006361211,0.1168851,0.8866853350400005,-0.3842778005700001,3.1999171219000004,-1.063487,0.06840942,0.5097727
2023-12-22 07:52:21.609999872,0.03688331,-0.3150879,-0.007281265,-0.0379134,-0.007084957,0.01974796,0.02669951,-0.005926157,0.1207502,0.9133848450400004,-0.3902039575700001,3.3206673219,-1.063098,0.06832214,0.5115392
2023-12-22 07:52:21.622999808,0.03674051,-0.3150981,-0.007472828,-0.03401259,-0.0003484742,0.01602475,0.02703553,-0.00565903,0.1248333,0.9404203750400004,-0.3958629875700001,3.4455006219000004,-1.062739,0.06823443,0.513384
2023-12-22 07:52:21.638000128,0.03666512,-0.3150039,-0.007580684,-0.03773622,0.003827428,0.009077551,0.027347,-0.005313116,0.1287327,0.9677673750400004,-0.4011761035700001,3.5742333219000004,-1.062335,0.06814821,0.5152477
2023-12-22 07:52:21.652000000,0.03644977,-0.3149293,-0.007756398,-0.03103822,0.007745838,0.0052663,0.02781896,-0.005303822,0.1324889,0.9955863350400004,-0.4064799255700001,3.7067222219,-1.061953,0.06807818,0.5171816
2023-12-22 07:52:21.664999936,0.0364173,-0.3146901,-0.007808405,-0.02675886,0.01440605,0.003882423,0.02851283,-0.005495361,0.1360979,1.0240991650400004,-0.4119752865700001,3.8428201219,-1.061531,0.0679402,0.5191233
2023-12-22 07:52:21.680000000,0.0362346,-0.3145697,-0.007850626,-0.02730152,0.01343525,0.004885157,0.02915935,-0.005754137,0.140022,1.0532585150400005,-0.4177294235700001,3.9828421219,-1.061093,0.06785672,0.5211544
2023-12-22 07:52:21.693000192,0.0361887,-0.314477,-0.008002712,-0.02868473,0.01376448,0.00222269,0.03038818,-0.005991594,0.1442702,1.0836466950400006,-0.4237210175700001,4.1271123219,-1.060639,0.06777664,0.5232538
2023-12-22 07:52:21.707000064,0.03610951,-0.3142661,-0.008362385,-0.02744148,0.01677667,-0.003150748,0.03209093,-0.005897454,0.1483197,1.1157376250400006,-0.4296184715700001,4.2754320219,-1.06014,0.06768799,0.5254191
2023-12-22 07:52:21.720999936,0.03605004,-0.3141734,-0.008500708,-0.02721271,0.01675995,-0.007532133,0.03356696,-0.00596873,0.1524212,1.1493045850400003,-0.4355872015700001,4.4278532219,-1.05962,0.06757031,0.5276215
2023-12-22 07:52:21.734999808,0.03582401,-0.3141359,-0.00848384,-0.02277431,0.01671886,0.003828901,0.03501575,-0.006070698,0.1563561,1.1843203350400004,-0.44165789957,4.5842093219,-1.059098,0.0674613,0.5298573
2023-12-22 07:52:21.749000192,0.03562244,-0.3140458,-0.008495362,-0.02626099,0.01310894,0.00854927,0.03609112,-0.006843272,0.1596379,1.2204114550400005,-0.4485011715700001,4.7438472219,-1.058539,0.06733159,0.5321017
2023-12-22 07:52:21.763000064,0.03521569,-0.3140524,-0.008666059,-0.02950098,0.01155466,0.01769313,0.03719673,-0.007726136,0.1626808,1.2576081850400005,-0.4562273075700001,4.906528021900001,-1.057991,0.0672009,0.5344247
2023-12-22 07:52:21.776999936,0.03480196,-0.3139667,-0.008670868,-0.03100374,0.008490992,0.02742677,0.03802166,-0.008541255,0.1658004,1.2956298450400006,-0.4647685625700001,5.072328421900001,-1.057386,0.0670689,0.5367575
2023-12-22 07:52:21.790999808,0.03469061,-0.3139976,-0.008575555,-0.02678343,0.008592902,0.02870054,0.03910756,-0.009084973,0.1686897,1.3347374050400005,-0.4738535355700001,5.241018121900001,-1.056845,0.06690709,0.5391777
2023-12-22 07:52:21.805000192,0.03458457,-0.313995,-0.008795114,-0.02238406,0.004342164,0.02247673,0.03993363,-0.009428866,0.1718215,1.3746710350400004,-0.4832824015700001,5.412839621900001,-1.056294,0.06674598,0.5416617
2023-12-22 07:52:21.819000064,0.03452459,-0.3140337,-0.008734462,-0.01954451,0.003773665,0.01669266,0.04060981,-0.009609318,0.1745478,1.4152808450400003,-0.49289171957,5.587387421900001,-1.055749,0.06659504,0.5441547
2023-12-22 07:52:21.832999936,0.03437006,-0.3138498,-0.008705273,-0.0166481,0.003130515,0.01425682,0.04088772,-0.01010277,0.1771178,1.4561685650400005,-0.50299448957,5.7645052219,-1.055162,0.06642886,0.5466428
2023-12-22 07:52:21.846999808,0.03418684,-0.3139433,-0.008657861,-0.01520295,0.002692995,0.02028636,0.04104089,-0.01076126,0.1797563,1.4972094550400006,-0.51375574957,5.944261521900001,-1.054607,0.06624559,0.5492144
2023-12-22 07:52:21.860000000,0.03401234,-0.3139155,-0.008728119,-0.01558183,0.002810458,0.01793997,0.0412204,-0.01127089,0.1823158,1.5384298550400006,-0.5250266395700001,6.1265773219,-1.054057,0.06607465,0.5518094
2023-12-22 07:52:21.875000064,0.03395881,-0.3139782,-0.008832775,-0.01514527,0.0005689969,0.01485638,0.04113553,-0.01190298,0.1849173,1.5795653850400009,-0.5369296195700001,6.3114946219000005,-1.053502,0.0658621,0.5544481
2023-12-22 07:52:21.888000000,0.03386878,-0.3138587,-0.008899452,-0.01647988,0.003212467,0.006518299,0.04113802,-0.01273042,0.1877752,1.6207034050400009,-0.5496600395700001,6.4992698219000005,-1.052896,0.06568712,0.5570867
2023-12-22 07:52:21.901999872,0.03395705,-0.3137664,-0.009101298,-0.01657903,0.005633874,-0.005883547,0.04126685,-0.01309684,0.1910576,1.6619702550400006,-0.5627568795700001,6.6903274219,-1.052337,0.0654933,0.5598134
2023-12-22 07:52:21.916000000,0.03441864,-0.3137091,-0.00951421,-0.0145344,0.007651813,-0.02540376,0.04165017,-0.01336527,0.1947381,1.7036204250400009,-0.5761221495700001,6.8850655219000005,-1.051795,0.06525898,0.5626391
2023-12-22 07:52:21.930000128,0.03486133,-0.3134868,-0.009510355,-0.006902506,0.01376133,-0.04124442,0.04249118,-0.01341034,0.1986173,1.7461116050400007,-0.58953248957,7.0836828219,-1.051168,0.0650473,0.565474
2023-12-22 07:52:21.944000000,0.03529752,-0.3132911,-0.00997551,0.000135961,0.01461058,-0.05918695,0.04336695,-0.0143474,0.2027362,1.7894785550400008,-0.60387988957,7.2864190219,-1.050547,0.0648025,0.5683793
2023-12-22 07:52:21.957999872,0.03577386,-0.3130275,-0.01023105,0.002679625,0.01742016,-0.06860403,0.04458687,-0.01537277,0.2067599,1.8340654250400008,-0.6192526595700001,7.4931789219,-1.049858,0.06455852,0.5713319
2023-12-22 07:52:21.972000000,0.03655148,-0.3129116,-0.01055974,0.004955675,0.01377273,-0.08555284,0.04589351,-0.01690672,0.2108945,1.8799589350400008,-0.6361593795700001,7.7040734219,-1.04916,0.06424992,0.5743319
2023-12-22 07:52:21.986000128,0.03745792,-0.3129731,-0.01093846,0.01224289,0.01113119,-0.1032375,0.0477828,-0.01969786,0.2149473,1.9277417350400008,-0.6558572395700001,7.919020721900001,-1.048483,0.06382159,0.5774882
2023-12-22 07:52:21.999000064,0.03845967,-0.3129856,-0.01141937,0.01512548,0.003979287,-0.120911,0.05023468,-0.02387941,0.2193104,1.9779764150400008,-0.6797366495700001,8.1383311219,-1.047697,0.06332327,0.5806629
2023-12-22 07:52:22.012999936,0.03953565,-0.3131195,-0.01219234,0.01549498,-0.00804134,-0.141285,0.05323878,-0.02860433,0.2234384,2.0312151950400006,-0.7083409795700001,8.3617695219,-1.046892,0.06276066,0.5838992
2023-12-22 07:52:22.027000064,0.04058352,-0.3134142,-0.01303486,0.01416786,-0.02625531,-0.1640313,0.05674638,-0.0342121,0.227351,2.0879615750400005,-0.74255307957,8.5891205219,-1.045981,0.06211121,0.5871644
2023-12-22 07:52:22.040999936,0.04139242,-0.3137345,-0.01378234,0.002324654,-0.04461236,-0.1676867,0.06110958,-0.03975295,0.2310662,2.149071155040001,-0.7823060295700001,8.8201867219,-1.044932,0.06139395,0.5904455
2023-12-22 07:52:22.055000064,0.04186344,-0.3143086,-0.01475373,-0.01982587,-0.06630556,-0.1553411,0.06667797,-0.04531074,0.234287,2.2157491250400008,-0.8276167695700001,9.0544737219,-1.043781,0.06060776,0.5937281
2023-12-22 07:52:22.069999872,0.04169752,-0.3150367,-0.0155002,-0.04454607,-0.08864083,-0.120389,0.07255615,-0.04878173,0.2369273,2.288305275040001,-0.87639849957,9.2914010219,-1.042507,0.05989378,0.5970862
2023-12-22 07:52:22.083000064,0.0410783,-0.3157279,-0.01635917,-0.07982044,-0.1036161,-0.07131569,0.07923174,-0.04897894,0.2395328,2.367537015040001,-0.92537743957,9.5309338219,-1.041176,0.05920874,0.6005226
2023-12-22 07:52:22.096999936,0.04023242,-0.316514,-0.01752101,-0.11508,-0.1166246,-0.03462686,0.08678919,-0.04721767,0.2423257,2.454326205040001,-0.97259510957,9.7732595219,-1.039733,0.05859106,0.6040166
2023-12-22 07:52:22.111000064,0.03956548,-0.3173188,-0.01853884,-0.1387543,-0.1265352,-0.01452425,0.09444435,-0.04440583,0.24583,2.548770555040001,-1.0170009395700002,10.0190895219,-1.03819,0.05798177,0.6075612
2023-12-22 07:52:22.124000000,0.03903282,-0.3180089,-0.01963272,-0.1506752,-0.1277379,-0.01242107,0.1027114,-0.04126637,0.2494854,2.651481955040001,-1.05826730957,10.2685749219,-1.036521,0.05741529,0.6111531
2023-12-22 07:52:22.138000128,0.03886893,-0.3186334,-0.02089399,-0.1496939,-0.12691,-0.02549477,0.1113674,-0.03811635,0.2537841,2.762849355040001,-1.09638365957,10.5223590219,-1.034737,0.05686361,0.614809
2023-12-22 07:52:22.152000000,0.03871272,-0.3192769,-0.02182539,-0.1410535,-0.1218864,-0.03970876,0.1206,-0.03508616,0.2582764,2.883449355040001,-1.13146981957,10.7806354219,-1.032784,0.05640061,0.6185412
2023-12-22 07:52:22.165999872,0.03838138,-0.3197818,-0.0227461,-0.1339281,-0.1113571,-0.0413489,0.1291922,-0.0324737,0.2620171,3.012641555040001,-1.16394351957,11.0426525219,-1.030762,0.05597435,0.6223282
2023-12-22 07:52:22.180000000,0.03807032,-0.3202346,-0.02334655,-0.1212283,-0.1011351,-0.02705486,0.1380803,-0.02997294,0.2654825,3.150721855040001,-1.19391645957,11.308135021899998,-1.028595,0.05551074,0.6260695
2023-12-22 07:52:22.194000128,0.03731682,-0.3206646,-0.02366507,-0.1103995,-0.09075785,-0.002300128,0.1458597,-0.02726467,0.2685272,3.296581555040001,-1.22118112957,11.576662221899998,-1.026353,0.05520096,0.6298705
2023-12-22 07:52:22.208000000,0.03678796,-0.3210052,-0.02409998,-0.102346,-0.07869922,0.01394102,0.1536003,-0.02396177,0.2720472,3.4501818550400007,-1.2451428995700002,11.848709421899995,-1.023976,0.05492076,0.6337393
2023-12-22 07:52:22.220999936,0.03644605,-0.3211765,-0.02442504,-0.09361381,-0.06222713,0.02261456,0.1623071,-0.01961963,0.2766526,3.612488955040001,-1.2647625295700002,12.125362021899996,-1.021498,0.05473088,0.6377226
2023-12-22 07:52:22.234999808,0.03583134,-0.3211527,-0.02457355,-0.0783233,-0.04690299,0.03080728,0.1708161,-0.01473598,0.2817775,3.783305055040001,-1.2794985095700002,12.407139521899998,-1.018874,0.05469251,0.6417602
2023-12-22 07:52:22.249000192,0.03533857,-0.3212515,-0.02461702,-0.06778336,-0.03063459,0.0367322,0.1793059,-0.009681088,0.2878703,3.962610955040001,-1.2891795975700002,12.695009821899998,-1.016198,0.05466399,0.6459356
2023-12-22 07:52:22.263000064,0.03502782,-0.3211048,-0.02455712,-0.05393414,-0.01499241,0.04243662,0.1879849,-0.004277213,0.2947271,4.150595855040001,-1.2934568105700002,12.989736921899995,-1.01334,0.05469393,0.6501891
2023-12-22 07:52:22.276999936,0.03499186,-0.3208933,-0.02447722,-0.03721487,0.003866432,0.03569138,0.1969567,0.0007807491,0.3022187,4.347552555040001,-1.29267606147,13.291955621899996,-1.0104,0.05478811,0.6545838
2023-12-22 07:52:22.290999808,0.0349323,-0.3206998,-0.02440877,-0.01454089,0.01747051,0.02401351,0.2062203,0.005274274,0.3109528,4.553772855040001,-1.28740178747,13.602908421899995,-1.007322,0.05498669,0.6591845
2023-12-22 07:52:22.305000192,0.0351605,-0.3204399,-0.02420142,0.002492614,0.02772272,0.01415335,0.2147932,0.008488945,0.319993,4.768566055040001,-1.27891284247,13.922901421899995,-1.004125,0.05512972,0.6638411
2023-12-22 07:52:22.318000128,0.03548159,-0.3199981,-0.02395291,0.01551291,0.03996263,-0.0001044636,0.2238083,0.009950602,0.329652,4.992374355040001,-1.26896224047,14.252553421899997,-1.000725,0.05527705,0.6686129
2023-12-22 07:52:22.332000000,0.03565083,-0.3195118,-0.02394239,0.01728875,0.05180479,-0.006343596,0.2332376,0.01115353,0.340082,5.225611955040001,-1.25780871047,14.592635421899995,-0.9972157,0.05543736,0.6735232
2023-12-22 07:52:22.345999872,0.03590754,-0.3189583,-0.02409949,0.01131432,0.06100416,-0.01909172,0.2431195,0.01105718,0.3510801,5.46873145504,-1.24675153047,14.943715521899998,-0.9935223,0.05554041,0.6786801
2023-12-22 07:52:22.360000000,0.03610707,-0.3185827,-0.02417612,0.007489054,0.06721086,-0.02132295,0.2538508,0.01027621,0.3628846,5.722582255040001,-1.23647532047,15.306600121899995,-0.9897475,0.05563068,0.6840227
2023-12-22 07:52:22.374000128,0.03619307,-0.3180846,-0.0240561,0.01132314,0.06764163,-0.02248432,0.2641906,0.008226585,0.3738113,5.986772855040001,-1.22824873547,15.680411421899995,-0.9857621,0.05569199,0.6894376
2023-12-22 07:52:22.388000000,0.03629142,-0.3176539,-0.02402037,0.004767906,0.06657596,-0.01990351,0.2747183,0.005758117,0.384485,6.261491155040001,-1.22249061847,16.0648964219,-0.9816976,0.05564105,0.6949326
2023-12-22 07:52:22.401999872,0.03651887,-0.3172912,-0.0239744,0.004526537,0.06431462,-0.01666602,0.2853115,0.00264194,0.3953716,6.5468026550400005,-1.21984867847,16.4602680219,-0.9774664,0.05552049,0.7005807
2023-12-22 07:52:22.416000000,0.03655912,-0.316866,-0.02429296,-0.00250362,0.06373103,-0.02413866,0.2967036,-0.000582999,0.407314,6.84350625504,-1.22043167747,16.8675820219,-0.9730255,0.0554567,0.7065203
2023-12-22 07:52:22.428999936,0.03695086,-0.3163683,-0.02448392,-0.001257554,0.0660708,-0.03490369,0.3083295,-0.004352393,0.419124,7.1518357550400005,-1.22478407047,17.2867060219,-0.9683951,0.05524289,0.7126022
2023-12-22 07:52:22.443000064,0.03691617,-0.3158936,-0.02446907,-0.007126058,0.06708103,-0.03330648,0.3197072,-0.009053472,0.4304455,7.47154295504,-1.23383754247,17.7171515219,-0.9636684,0.05497439,0.7188007
2023-12-22 07:52:22.456999936,0.03667514,-0.3153605,-0.02445409,-0.01461578,0.06982119,-0.01334997,0.3316536,-0.01392933,0.4423085,7.80319655504,-1.24776687247,18.1594600219,-0.958755,0.05462132,0.7250974
2023-12-22 07:52:22.471000064,0.03670113,-0.3150236,-0.02452379,-0.01470908,0.07040533,-0.00119522,0.3437945,-0.01710794,0.4538645,8.14699105504,-1.26487481247,18.6133245219,-0.9536928,0.05429265,0.7315875
2023-12-22 07:52:22.484999936,0.03695656,-0.3145245,-0.02445787,-0.0008699144,0.06937756,-0.0104749,0.3568183,-0.01946194,0.4657597,8.503809355040001,-1.28433675247,19.0790842219,-0.9483378,0.05400191,0.7382582
2023-12-22 07:52:22.499000064,0.03759935,-0.3141826,-0.02423143,0.01727073,0.06361065,-0.02956837,0.3703868,-0.02152575,0.4779098,8.874196155040002,-1.30586250247,19.5569940219,-0.942792,0.05365487,0.7450985
2023-12-22 07:52:22.512999936,0.03836592,-0.313982,-0.02440437,0.03349986,0.05492275,-0.04798323,0.3847642,-0.0229941,0.4906115,9.25896035504,-1.32885660247,20.0476055219,-0.9370342,0.05329216,0.7521425
2023-12-22 07:52:22.527000064,0.0392654,-0.313721,-0.0243383,0.04370953,0.04740161,-0.0715535,0.3987427,-0.02456,0.5030818,9.65770305504,-1.3534166024699998,20.5506873219,-0.9310313,0.05295466,0.759361
2023-12-22 07:52:22.540999936,0.04007069,-0.3133022,-0.02457168,0.04750827,0.04303919,-0.09034058,0.4126738,-0.02577885,0.5151778,10.07037685504,-1.37919545247,21.0658651219,-0.9248567,0.05260389,0.766735
2023-12-22 07:52:22.555000064,0.04082593,-0.3130756,-0.02492304,0.04328265,0.04529831,-0.1050066,0.426688,-0.02717048,0.5265489,10.49706485504,-1.40636593247,21.5924140219,-0.9185963,0.05218396,0.7742608
2023-12-22 07:52:22.568000000,0.04151089,-0.3126607,-0.02518453,0.03591542,0.04663063,-0.1095105,0.4405072,-0.02756534,0.5373155,10.937572055040002,-1.43393127247,22.1297295219,-0.9121104,0.05182633,0.7818804
2023-12-22 07:52:22.582000128,0.04291945,-0.3123383,-0.02518022,0.04601831,0.04707479,-0.1199283,0.4549513,-0.02702946,0.5482118,11.392523355040002,-1.46096073247,22.6779413219,-0.9053109,0.05140865,0.7896482
2023-12-22 07:52:22.596000000,0.04417768,-0.3118529,-0.02559213,0.05688409,0.05230557,-0.1445861,0.4691748,-0.02585011,0.558288,11.86169815504,-1.48681084247,23.2362293219,-0.8983169,0.05108701,0.797545
2023-12-22 07:52:22.609999872,0.04573815,-0.3114322,-0.02568917,0.07106958,0.05334647,-0.1637541,0.483478,-0.02467748,0.5682041,12.34517615504,-1.51148832247,23.8044334219,-0.8911968,0.0507183,0.8055499
2023-12-22 07:52:22.624000000,0.04721716,-0.3110063,-0.0257762,0.08459649,0.05970094,-0.1743437,0.4968503,-0.02425503,0.5768066,12.84202645504,-1.53574335247,24.3812400219,-0.8839797,0.0503636,0.8136508
2023-12-22 07:52:22.637000192,0.04876552,-0.3103371,-0.02576006,0.1005177,0.06668788,-0.1808359,0.5092456,-0.02446484,0.5848591,13.35127205504,-1.56020819247,24.9660991219,-0.8765699,0.05000466,0.8218288
2023-12-22 07:52:22.652000000,0.05058943,-0.3098253,-0.02560807,0.1193503,0.07850082,-0.1911503,0.5205894,-0.02557443,0.5918042,13.87186145504,-1.58578262247,25.5579033219,-0.8690781,0.04956581,0.8301279
2023-12-22 07:52:22.665999872,0.05249923,-0.3089057,-0.02541818,0.1360901,0.09280033,-0.1999374,0.5307255,-0.02781286,0.5975127,14.40258695504,-1.61359548247,26.1554160219,-0.8614151,0.04907001,0.8384134
2023-12-22 07:52:22.680000000,0.05426978,-0.3081107,-0.02496478,0.1586964,0.107228,-0.1957434,0.5394251,-0.0308953,0.6019869,14.94201205504,-1.64449078247,26.7574029219,-0.8537475,0.04861968,0.8467428
2023-12-22 07:52:22.694000128,0.05593977,-0.3075525,-0.02386545,0.1821456,0.1094557,-0.1752315,0.5447083,-0.03278874,0.6050923,15.48672035504,-1.67727952247,27.3624952219,-0.8460961,0.04824252,0.8551053
2023-12-22 07:52:22.707000064,0.05510906,-0.3069645,-0.02213865,0.1746397,0.1180133,-0.06821358,0.5489144,-0.02605477,0.6094333,16.03563475504,-1.70333429247,27.9719285219,-0.838332,0.04863479,0.8637073
2023-12-22 07:52:22.720999936,0.05371063,-0.3059326,-0.02083079,0.125027,0.1407605,0.06274005,0.5544696,0.003238986,0.61767,16.59010435504,-1.7000953064700002,28.5895985219,-0.8303779,0.05026605,0.8723834
2023-12-22 07:52:22.734999808,0.05767986,-0.3049748,-0.02106125,0.1443204,0.1560757,-0.03806797,0.5579601,0.03952237,0.6260854,17.14806445504,-1.66057293647,29.2156839219,-0.8225414,0.05137702,0.8812999
2023-12-22 07:52:22.749000192,0.0647696,-0.3030201,-0.02198396,0.2537235,0.1600942,-0.3365915,0.5639325,0.06194602,0.6400888,17.71199695504,-1.5986269164700002,29.8557727219,-0.8143281,0.05232817,0.8902283
2023-12-22 07:52:22.763000064,0.06753478,-0.3024944,-0.02095294,0.3158994,0.1461051,-0.3972937,0.5611697,0.07658919,0.6431187,18.27316665504,-1.5220377264700002,30.4988914219,-0.8064541,0.05366832,0.8991728
2023-12-22 07:52:22.776999936,0.07075103,-0.3021521,-0.02024563,0.3348608,0.1089444,-0.3779889,0.5543154,0.07900571,0.6445251,18.82748205504,-1.44303201647,31.1434165219,-0.798737,0.05465549,0.9082817
2023-12-22 07:52:22.790999808,0.07341262,-0.3017115,-0.0196934,0.3279317,0.08544061,-0.3422838,0.54432,0.07656724,0.6451312,19.37180205504,-1.3664647764700002,31.7885477219,-0.7914428,0.05572756,0.9173877
2023-12-22 07:52:22.805000192,0.07547919,-0.3012902,-0.01881336,0.3067586,0.07900032,-0.2882362,0.5301694,0.0716156,0.6462806,19.90197145504,-1.29484917647,32.4348283219,-0.7843345,0.05665037,0.9265877
2023-12-22 07:52:22.819000064,0.07642816,-0.3003312,-0.0183113,0.2532798,0.09463708,-0.2215459,0.5143989,0.06429249,0.6466877,20.41637035504,-1.2305566864700002,33.0815160219,-0.7772111,0.05732017,0.9357257
2023-12-22 07:52:22.832000000,0.07573912,-0.2995055,-0.01758436,0.169357,0.1151335,-0.1108598,0.4973078,0.05729479,0.647234,20.91367815504,-1.17326189647,33.7287500219,-0.7703485,0.05808198,0.9449497
2023-12-22 07:52:22.846999808,0.07464446,-0.2984088,-0.01728386,0.07969999,0.1377082,-0.01392401,0.4802198,0.055537,0.6502653,21.39389795504,-1.1177248964700002,34.3790153219,-0.7641729,0.05909572,0.9537875
2023-12-22 07:52:22.860000000,0.07408345,-0.2972013,-0.01720134,0.01142149,0.1597918,0.0220262,0.4657865,0.06209474,0.6559191,21.85968445504,-1.05563015647,35.0349344219,-0.75844,0.0603112,0.9624884
2023-12-22 07:52:22.874000128,0.07395955,-0.2954581,-0.01792274,-0.03894689,0.1853453,0.00236582,0.4531566,0.07190797,0.6625001,22.31284105504,-0.98372218647,35.6974345219,-0.7526659,0.06149062,0.9713728
2023-12-22 07:52:22.888000000,0.07305721,-0.2937867,-0.01844969,-0.09000348,0.20535,-0.006954719,0.441089,0.07910661,0.6680686,22.75393005504,-0.90461557647,36.3655031219,-0.7464305,0.062562,0.9807596
2023-12-22 07:52:22.901999872,0.07110131,-0.2920225,-0.0188581,-0.1463645,0.2313428,0.03277528,0.4296709,0.08230463,0.6712914,23.183600955040003,-0.8223109464700001,37.0367945219,-0.7402833,0.06364724,0.9901667
2023-12-22 07:52:22.916000000,0.06905031,-0.2903098,-0.01876043,-0.1888335,0.2426873,0.09062313,0.4212663,0.08562946,0.6742557,23.60486725504,-0.7366814864700001,37.7110502219,-0.7342675,0.06494966,0.999573
2023-12-22 07:52:22.931000064,0.06773314,-0.288709,-0.01928347,-0.1989355,0.2396368,0.1043752,0.4168046,0.09180066,0.6787499,24.02167185504,-0.6448808264700001,38.3898001219,-0.7283238,0.06641346,1.009092
2023-12-22 07:52:22.944000000,0.06750444,-0.2874996,-0.01963555,-0.1706688,0.2214469,0.06563396,0.4161878,0.0997817,0.6858642,24.43785965504,-0.5450991264700001,39.0756643219,-0.7222635,0.06793027,1.018795
2023-12-22 07:52:22.957999872,0.06785864,-0.2864579,-0.02018748,-0.1331042,0.1961124,0.007131428,0.4178747,0.1049272,0.6939471,24.85573435504,-0.4401719264700001,39.7696114219,-0.7161438,0.06928989,1.028622
2023-12-22 07:52:22.972000000,0.06862736,-0.285228,-0.02129312,-0.1062051,0.171318,-0.06878746,0.4204102,0.1034681,0.7024511,25.27614455504,-0.3367038264700001,40.4720625219,-0.7099886,0.07040213,1.038537
2023-12-22 07:52:22.986000128,0.06905398,-0.2838882,-0.02266235,-0.1088392,0.1614844,-0.1286527,0.4238448,0.09692542,0.7119638,25.69998935504,-0.2397784064700001,41.1840263219,-0.7036725,0.07141685,1.048927
2023-12-22 07:52:22.999000064,0.06991893,-0.2825736,-0.02420763,-0.1091547,0.1550979,-0.171728,0.4269588,0.08763796,0.7216651,26.12694815504,-0.1521404464700001,41.9056914219,-0.6973932,0.07220759,1.059342
2023-12-22 07:52:23.012999936,0.07091741,-0.28138,-0.02527579,-0.09234445,0.1474568,-0.2050191,0.4300144,0.07484324,0.7315991,26.55696255504,-0.0772972064700001,42.6372905219,-0.6910488,0.07271199,1.069779
2023-12-22 07:52:23.027000064,0.07151622,-0.2802255,-0.02636254,-0.08521109,0.1420714,-0.2110477,0.433198,0.05889025,0.741196,26.990160555040003,-0.0184069564700001,43.3784865219,-0.6847463,0.07292855,1.08031
2023-12-22 07:52:23.040999936,0.07195125,-0.2788779,-0.02724882,-0.08997133,0.1438824,-0.1950811,0.4364596,0.03921507,0.7505246,27.42662015504,0.0208081135299998,44.1290111219,-0.6784828,0.07271225,1.090918
2023-12-22 07:52:23.055000064,0.07174571,-0.2774814,-0.02790767,-0.09858791,0.1566558,-0.156763,0.4395686,0.01591659,0.7604716,27.866188755040003,0.0367247035299998,44.8894827219,-0.6721578,0.07223982,1.10179
2023-12-22 07:52:23.068999936,0.07135316,-0.2760274,-0.02818647,-0.09921827,0.1733029,-0.1053967,0.4423017,-0.007277817,0.7704536,28.308490455040005,0.0294468865299998,45.659936321900005,-0.6658158,0.07148329,1.112795
2023-12-22 07:52:23.083000064,0.0704954,-0.2747378,-0.02815793,-0.1072344,0.1841629,-0.0497952,0.4447411,-0.0303983,0.7810932,28.753231555040006,-0.0009514134700001,46.441029521900006,-0.6593594,0.0705092,1.123947
2023-12-22 07:52:23.096999936,0.06935266,-0.2733744,-0.02851563,-0.1222863,0.1875115,-0.001393543,0.4460079,-0.0503627,0.7914028,29.199239455040008,-0.0513141134700001,47.232432321900006,-0.6529046,0.06928887,1.135286
2023-12-22 07:52:23.111000064,0.06824836,-0.271969,-0.02849179,-0.137577,0.1968384,0.03324715,0.4466103,-0.06953704,0.8014979,29.645849755040008,-0.1208511534700001,48.03393022190001,-0.646608,0.06776918,1.146616
2023-12-22 07:52:23.124999936,0.06655743,-0.2705263,-0.02844752,-0.1531478,0.2049773,0.07530954,0.4470552,-0.08776568,0.8116541,30.09290495504001,-0.2086168334700001,48.845584321900006,-0.640417,0.06611249,1.157986
2023-12-22 07:52:23.139000064,0.06536373,-0.2692808,-0.02846319,-0.1610128,0.2002321,0.09672417,0.447285,-0.1030357,0.8211338,30.54018995504001,-0.3116525334700001,49.6667181219,-0.6341965,0.06419387,1.169496
2023-12-22 07:52:23.153000192,0.06428242,-0.2680683,-0.02879148,-0.1622317,0.189278,0.09444558,0.4476185,-0.11586,0.830884,30.98780845504001,-0.4275125334700001,50.4976021219,-0.6279169,0.06223613,1.181189
2023-12-22 07:52:23.167000064,0.0634031,-0.2668733,-0.02912911,-0.1581974,0.1801857,0.07543724,0.4473954,-0.1258939,0.841002,31.43520385504001,-0.5534064334700002,51.338604121900005,-0.6216921,0.06020719,1.193035
2023-12-22 07:52:23.180000000,0.06300752,-0.2656015,-0.02951892,-0.1485791,0.1772277,0.04442867,0.4463855,-0.1349074,0.851943,31.881589355040013,-0.6883138334700002,52.1905471219,-0.61538,0.05797238,1.205155
2023-12-22 07:52:23.194000128,0.06247736,-0.2646677,-0.02983182,-0.1333663,0.1643669,0.02042835,0.4445339,-0.1433257,0.8626842,32.32612325504002,-0.8316395334700002,53.0532313219,-0.6090854,0.05571356,1.217481
2023-12-22 07:52:23.208000000,0.06204478,-0.2640771,-0.03018546,-0.1160983,0.1361215,0.01496035,0.4426373,-0.1493602,0.8728738,32.76876055504002,-0.9809997334700002,53.9261051219,-0.6028135,0.05347475,1.22991
2023-12-22 07:52:23.221999872,0.06147689,-0.2640812,-0.03041264,-0.09815188,0.08859095,0.01647129,0.4409754,-0.15183,0.8839003,33.20973595504002,-1.1328297334700002,54.8100054219,-0.5964345,0.05134591,1.242592
2023-12-22 07:52:23.236000000,0.06108194,-0.2644671,-0.03088596,-0.09194616,0.03137041,0.01298157,0.4393321,-0.1488016,0.8945319,33.64906805504002,-1.2816313334700002,55.7045373219,-0.5900292,0.04935737,1.255415
2023-12-22 07:52:23.249999872,0.06127109,-0.2650096,-0.03222042,-0.09491311,-0.02341199,-0.02709858,0.437773,-0.1412892,0.9060286,34.08684105504002,-1.42292053347,56.6105659219,-0.5838652,0.04752956,1.268378
2023-12-22 07:52:23.263000064,0.06165243,-0.2658526,-0.03321724,-0.0823158,-0.06972311,-0.06508844,0.4358934,-0.1305852,0.9189483,34.522734455040016,-1.5535057334700002,57.5295142219,-0.5777643,0.04593091,1.281545
2023-12-22 07:52:23.278000128,0.06156293,-0.2668101,-0.03408476,-0.07766293,-0.1095422,-0.07144789,0.4337255,-0.1156206,0.9332455,34.95645995504002,-1.6691263334700002,58.46275972189999,-0.571625,0.04464403,1.294893
2023-12-22 07:52:23.290999808,0.06155022,-0.2680758,-0.0346835,-0.05643735,-0.1477867,-0.0607418,0.431543,-0.09927741,0.9465383,35.388002955040015,-1.7684037434700002,59.40929802189999,-0.5654416,0.04358555,1.30839
2023-12-22 07:52:23.305999872,0.06166745,-0.2696565,-0.03488746,-0.03265262,-0.1822372,-0.03801247,0.4285131,-0.08365234,0.9576307,35.81651605504001,-1.85205608347,60.3669287219,-0.5594124,0.04255932,1.321879
2023-12-22 07:52:23.320000000,0.06038914,-0.2714953,-0.03473458,-0.02766913,-0.2118786,0.02086622,0.4237984,-0.07120164,0.9646741,36.240314455040014,-1.92325772347,61.3316028219,-0.5535497,0.04173165,1.335387
2023-12-22 07:52:23.332999936,0.05764776,-0.2732385,-0.03471512,-0.07965075,-0.2303643,0.1189027,0.4182281,-0.05814639,0.9670587,36.658542555040015,-1.98140411347,62.2986615219,-0.5477554,0.04122316,1.348769
2023-12-22 07:52:23.346999808,0.05132959,-0.2749786,-0.03431792,-0.2161379,-0.2481744,0.314884,0.4159063,-0.02467141,0.9709226,37.07444885504002,-2.0060755234700003,63.2695841219,-0.5416718,0.04251116,1.36259
2023-12-22 07:52:23.360999936,0.04990867,-0.2766222,-0.03488376,-0.2475137,-0.2542463,0.3264361,0.4193038,0.0326403,0.9777881,37.49375265504002,-1.9734352234700003,64.24737222190001,-0.5354141,0.04478605,1.3767
2023-12-22 07:52:23.375000064,0.05672006,-0.2783545,-0.03649788,-0.03957152,-0.2607389,0.003080428,0.4299286,0.0832358,0.990078,37.923681255040016,-1.8901994234700004,65.2374502219,-0.5287964,0.04623913,1.390945
2023-12-22 07:52:23.388000000,0.06247821,-0.280576,-0.03699789,0.1941605,-0.2846424,-0.282899,0.4431539,0.1116454,0.9970393,38.366835155040015,-1.7785540234700004,66.2344895219,-0.5220776,0.04755141,1.404775
2023-12-22 07:52:23.401999872,0.0663127,-0.2830797,-0.03641626,0.3272784,-0.3133045,-0.3578098,0.454006,0.1147196,0.9911135,38.820841155040014,-1.6638344234700004,67.2256030219,-0.5150734,0.04855277,1.418439
2023-12-22 07:52:23.416000000,0.06873257,-0.2856603,-0.03605802,0.3604766,-0.3359482,-0.3280773,0.4658641,0.1002358,0.9784845,39.28670525504001,-1.5635986234700003,68.2040875219,-0.5075778,0.04925512,1.432418
2023-12-22 07:52:23.430000128,0.06681775,-0.2883034,-0.03517827,0.2653432,-0.3487717,-0.1470739,0.4779001,0.08365756,0.9615307,39.76460535504001,-1.4799410634700003,69.16561822189999,-0.4999292,0.0502376,1.446127
2023-12-22 07:52:23.444000000,0.06268474,-0.2915043,-0.03315028,0.13204,-0.365078,0.1433713,0.4906978,0.07857709,0.9443176,40.25530315504001,-1.4013639734700003,70.1099358219,-0.4920564,0.05176393,1.45985
2023-12-22 07:52:23.457999872,0.06020056,-0.294717,-0.03091289,0.09457906,-0.3854444,0.3328567,0.5045383,0.08784046,0.932835,40.75984145504001,-1.3135235134700003,71.04277082189999,-0.4837536,0.05357566,1.473709
2023-12-22 07:52:23.472000000,0.05929078,-0.2978643,-0.02948711,0.1072908,-0.4039901,0.3634283,0.5201541,0.1066238,0.9257371,41.27999555504001,-1.2068997134700004,71.9685079219,-0.4754299,0.05554007,1.487279
2023-12-22 07:52:23.486000128,0.05848476,-0.3006341,-0.02855065,0.1123255,-0.4005657,0.3171277,0.5336385,0.1223041,0.9194518,41.81363405504001,-1.0845956134700003,72.8879597219,-0.4682302,0.05725903,1.499293
2023-12-22 07:52:23.500000000,0.05610872,-0.3031614,-0.0271546,0.0824957,-0.3799263,0.3329731,0.5417634,0.1295352,0.9106283,42.35539745504001,-0.9550604134700004,73.7985880219,-0.4610687,0.05886759,1.511065
2023-12-22 07:52:23.513999872,0.05230658,-0.3056299,-0.02477807,0.05143216,-0.3560008,0.4285122,0.5453603,0.1321281,0.901579,42.90075775504001,-0.8229323134700004,74.7001670219,-0.4530257,0.06086483,1.523898
2023-12-22 07:52:23.528000000,0.04982351,-0.3077938,-0.02233631,0.05421707,-0.3238169,0.4946927,0.5461676,0.136874,0.8942171,43.44692535504001,-0.6860583134700005,75.5943841219,-0.4445626,0.06302553,1.537135
2023-12-22 07:52:23.542000128,0.04922307,-0.3095083,-0.02052077,0.09642921,-0.2852786,0.4362006,0.5465478,0.1405085,0.8908569,43.99347315504001,-0.5455498134700004,76.48524102190001,-0.436313,0.06502493,1.550209
2023-12-22 07:52:23.555000064,0.04951092,-0.3108614,-0.01909616,0.1418609,-0.242986,0.3314268,0.546141,0.1390802,0.8903127,44.539614155040006,-0.4064696134700004,77.3755537219,-0.4289544,0.06669795,1.562244
2023-12-22 07:52:23.568999936,0.04992715,-0.3118384,-0.01750273,0.1784154,-0.1982662,0.2381362,0.5450811,0.131014,0.8916388,45.08469525504,-0.2754556134700004,78.2671925219,-0.421818,0.06811766,1.573946
2023-12-22 07:52:23.583000064,0.05100904,-0.312452,-0.016148,0.2059262,-0.1503999,0.1460761,0.5443127,0.1166965,0.8954339,45.62900795504,-0.1587591134700005,79.1626264219,-0.4144325,0.06924227,1.586012
2023-12-22 07:52:23.596999936,0.05248957,-0.3130298,-0.01531881,0.22678,-0.1149686,0.05768044,0.5438651,0.09982703,0.9012393,46.17287305504,-0.0589320834700004,80.0638657219,-0.4059823,0.07019636,1.599649
2023-12-22 07:52:23.611000064,0.05458267,-0.3134532,-0.0146273,0.2425866,-0.09028629,-0.03163804,0.5441701,0.07983713,0.9081993,46.71704315504,0.0209050465299995,80.97206502190001,-0.3974698,0.07074699,1.613391
2023-12-22 07:52:23.624999936,0.05667534,-0.3135702,-0.01436595,0.2326767,-0.0692663,-0.1064347,0.5450075,0.05558308,0.9154083,47.26205065504,0.0764881265299995,81.8874733219,-0.3891009,0.07084204,1.626731
2023-12-22 07:52:23.640000000,0.05824481,-0.3136081,-0.01411687,0.2109244,-0.04463929,-0.1430535,0.54532,0.02882621,0.9208011,47.80737065504,0.1053143365299995,82.80827442190001,-0.3809923,0.07055008,1.639929
2023-12-22 07:52:23.653000192,0.05916281,-0.3135031,-0.01344181,0.1863874,-0.02759888,-0.128557,0.545095,0.000294649,0.9257757,48.35246565504,0.1056089855299995,83.73405012190001,-0.3730279,0.06987597,1.652999
2023-12-22 07:52:23.665999872,0.05951976,-0.3134609,-0.01274487,0.160199,-0.004207591,-0.0818705,0.5455092,-0.02859131,0.9296451,48.89797485504,0.0770176755299995,84.66369522190001,-0.36528,0.06882556,1.66598
2023-12-22 07:52:23.680000000,0.05915735,-0.3132368,-0.01208873,0.1174678,0.01311026,-0.02176588,0.5468448,-0.05518503,0.9330635,49.44481965504,0.0218326455299994,85.59675872190002,-0.3575445,0.06746154,1.678886
2023-12-22 07:52:23.694999808,0.05878496,-0.3128995,-0.01165028,0.07849694,0.03239442,0.02026062,0.5503905,-0.07895875,0.9364612,49.99521015504,-0.0571261044700005,86.53321992190001,-0.3497733,0.06587732,1.691822
2023-12-22 07:52:23.709000192,0.05879043,-0.3125603,-0.01161355,0.04931929,0.04399383,0.02463995,0.5555514,-0.09642848,0.9404852,50.55076155504,-0.1535545844700005,87.47370512190001,-0.3419302,0.06422354,1.704876
2023-12-22 07:52:23.721999872,0.05931428,-0.3122,-0.01161691,0.04168554,0.04936996,-0.001792843,0.5617658,-0.1093343,0.9449773,51.11252735504,-0.2628888844700005,88.41868242190002,-0.3340234,0.06254337,1.717989
2023-12-22 07:52:23.736000000,0.06010554,-0.3115281,-0.01186367,0.03486742,0.05588552,-0.04380335,0.5683404,-0.11802,0.9497671,51.68086775504,-0.3809088844700005,89.36844952190002,-0.3259706,0.06081243,1.731127
2023-12-22 07:52:23.750000128,0.06156399,-0.3106838,-0.01240739,0.03563597,0.07092246,-0.1013002,0.5760795,-0.1246795,0.9537805,52.25694725504,-0.5055883844700004,90.3222300219,-0.3177115,0.05894456,1.744176
2023-12-22 07:52:23.764000000,0.06285692,-0.310067,-0.01253843,0.0484385,0.08032456,-0.142196,0.5838327,-0.1316742,0.9556823,52.84077995504,-0.6372625844700004,91.27791232190002,-0.3093172,0.05695217,1.757215
2023-12-22 07:52:23.778000128,0.06364809,-0.3091091,-0.0126665,0.05170468,0.08802744,-0.1476881,0.5919244,-0.1403749,0.9555871,53.43270435504,-0.7776374844700004,92.23349942190002,-0.3007908,0.05479679,1.770202
2023-12-22 07:52:23.792000000,0.06371062,-0.3081578,-0.01261767,0.03679426,0.1098593,-0.1110729,0.6009045,-0.1491187,0.9538543,54.03360885504,-0.9267561844700004,93.18735372190002,-0.2922674,0.05258918,1.783233
2023-12-22 07:52:23.805999872,0.06355812,-0.3069507,-0.01232866,0.02104843,0.1389341,-0.06316389,0.6092671,-0.1547776,0.9522873,54.64287595504,-1.0815337844700004,94.13964102190002,-0.2836083,0.05042909,1.796282
2023-12-22 07:52:23.820000000,0.06307302,-0.3053258,-0.0119713,0.004403112,0.1763109,-0.02313444,0.6176966,-0.1559023,0.9520463,55.26057255504,-1.2374360844700003,95.09168732190004,-0.2748771,0.04843672,1.809292
2023-12-22 07:52:23.832999936,0.06231701,-0.3035182,-0.01131921,-0.01070683,0.2191458,0.0235918,0.6258679,-0.1499813,0.95368,55.88644045504,-1.3874173844700004,96.04536732190004,-0.2660549,0.04668657,1.82237
2023-12-22 07:52:23.848000000,0.06210887,-0.30157,-0.01017777,0.009161104,0.2598519,0.05418425,0.6337667,-0.1387231,0.9563087,56.520207155040005,-1.5261404844700004,97.00167602190002,-0.2570925,0.04523651,1.835412
2023-12-22 07:52:23.860999936,0.06172415,-0.2993472,-0.00896471,0.03226178,0.2992358,0.07291353,0.642458,-0.123896,0.9596261,57.16266515504,-1.6500364844700004,97.96130212190002,-0.2479604,0.04404967,1.848491
2023-12-22 07:52:23.875000064,0.06100589,-0.2969794,-0.007949741,0.03681105,0.3316171,0.08966156,0.6514539,-0.1083132,0.9616255,57.81411905504,-1.7583496844700004,98.92292762190002,-0.2387412,0.04305577,1.8616
2023-12-22 07:52:23.888999936,0.06002013,-0.2945935,-0.006947315,0.01909653,0.3571013,0.1102748,0.6599647,-0.09067143,0.9621319,58.474083755040006,-1.8490211144700004,99.88505952190002,-0.2294702,0.04238743,1.874708
2023-12-22 07:52:23.903000064,0.0592888,-0.292125,-0.005997147,0.01135691,0.3749682,0.1193643,0.6653517,-0.07139046,0.9603395,59.13943545504001,-1.9204115744700003,100.84539902190002,-0.2202836,0.04189203,1.887697
2023-12-22 07:52:23.916999936,0.05746821,-0.2895943,-0.004181167,0.004665736,0.3944626,0.1714289,0.6661804,-0.05212753,0.958108,59.80561585504001,-1.97253910447,101.80350702190002,-0.2109382,0.04183225,1.900956
2023-12-22 07:52:23.931000064,0.05222299,-0.2870889,-0.001517724,-0.05542451,0.4147375,0.3492638,0.6652817,-0.01744941,0.9604516,60.47089755504001,-1.98998851447,102.76395862190002,-0.201467,0.04331098,1.91457
2023-12-22 07:52:23.946000128,0.05046341,-0.2841943,-0.0004689256,-0.08623087,0.4379838,0.383704,0.6666323,0.04155122,0.9705262,61.137529855040015,-1.94843729447,103.7344848219,-0.1918379,0.04586514,1.928722
2023-12-22 07:52:23.959000064,0.05775356,-0.2805292,-0.003140503,0.02421352,0.438906,-0.04173822,0.6716538,0.08704344,0.9891618,61.809183655040016,-1.86139385447,104.72364662190002,-0.1821495,0.0471413,1.943178
2023-12-22 07:52:23.972999936,0.06557036,-0.2768143,-0.006058782,0.1542602,0.4213427,-0.4979444,0.6734152,0.1056442,1.00354,62.48259885504002,-1.7557496544700002,105.72718662190002,-0.172619,0.04811496,1.957363
2023-12-22 07:52:23.987000064,0.07198779,-0.2740533,-0.007878909,0.2558879,0.3716159,-0.7418157,0.6671264,0.09950803,1.005556,63.14972525504002,-1.6562416244700002,106.73274262190002,-0.1631485,0.04881433,1.971666
2023-12-22 07:52:24.000999936,0.07633809,-0.2724039,-0.007816411,0.3179657,0.3041198,-0.7270337,0.6565572,0.0795536,0.9986896,63.80628245504002,-1.57668802447,107.73143222190002,-0.1538535,0.04929783,1.985769
2023-12-22 07:52:24.015000064,0.07568002,-0.2717637,-0.005761425,0.2958626,0.2435175,-0.4441462,0.6417174,0.05506582,0.9857718,64.44799985504002,-1.52162220447,108.71720402190002,-0.1448011,0.04976608,1.999722
2023-12-22 07:52:24.028999936,0.07096052,-0.2715645,-0.002265672,0.1736833,0.2112207,0.004749188,0.6252915,0.04050283,0.971053,65.07329135504003,-1.48111937447,109.6882570219,-0.1360204,0.05059905,2.013457
2023-12-22 07:52:24.043000064,0.06587437,-0.2715999,0.000903571,0.04146866,0.1817549,0.3541428,0.6082591,0.03560705,0.9602491,65.68155045504002,-1.44551232447,110.6485061219,-0.1284133,0.05139183,2.025963
2023-12-22 07:52:24.056999936,0.06206375,-0.2714339,0.003553629,-0.0354921,0.1600379,0.5328024,0.5903304,0.04302974,0.9549547,66.27188085504002,-1.40248258447,111.6034608219,-0.1218876,0.0524031,2.037207
2023-12-22 07:52:24.069999872,0.059041,-0.2711371,0.005177692,-0.07670065,0.1445872,0.54916,0.5749946,0.06218055,0.9558734,66.84687545504002,-1.34030203447,112.55933422190002,-0.1151684,0.05391693,2.049057
2023-12-22 07:52:24.084000000,0.05638953,-0.2703921,0.004648552,-0.1527242,0.1369863,0.4535879,0.5636394,0.09285305,0.9605416,67.41051485504002,-1.24744898447,113.51987582190002,-0.1073924,0.05613675,2.062631
2023-12-22 07:52:24.099000064,0.05568001,-0.2691869,0.002950854,-0.2108046,0.1359001,0.2665408,0.5564224,0.1299521,0.9665304,67.96693725504002,-1.1174968844700002,114.4864062219,-0.09963766,0.05868046,2.076247
2023-12-22 07:52:24.112000000,0.05662657,-0.2682964,0.001359643,-0.1849344,0.1187786,0.05581829,0.5510728,0.1613492,0.9731303,68.51801005504002,-0.9561476844700002,115.4595365219,-0.09178478,0.06110936,2.090144
2023-12-22 07:52:24.125999872,0.05702498,-0.267889,0.0003226344,-0.1432447,0.09154905,-0.05301557,0.5469738,0.179523,0.9768327,69.06498385504003,-0.7766246844700002,116.4363692219,-0.08343901,0.06360955,2.1046
2023-12-22 07:52:24.140999936,0.05782369,-0.2677191,-0.0007086834,-0.1016025,0.05715346,-0.1148391,0.5454897,0.1864246,0.9797881,69.61047355504003,-0.5902000844700002,117.4161573219,-0.07487173,0.06601983,2.119331
2023-12-22 07:52:24.154000128,0.05961775,-0.2676115,-0.001547805,-0.03665662,0.0192716,-0.1724142,0.5469719,0.1856382,0.9844726,70.15744545504003,-0.4045618844700002,118.4006299219,-0.06655232,0.06834576,2.133487
2023-12-22 07:52:24.168000000,0.06236006,-0.2676281,-0.002562,0.04052088,-0.007583049,-0.2478566,0.5502282,0.1780471,0.9904238,70.70767365504004,-0.2265147844700001,119.3910537219,-0.05828098,0.07040042,2.14777
2023-12-22 07:52:24.183000064,0.06551722,-0.2673841,-0.004053983,0.09194762,-0.02689794,-0.3357192,0.5539232,0.161696,0.9974806,71.26159685504004,-0.0648187844700001,120.3885343219,-0.05038348,0.07192998,2.16167
2023-12-22 07:52:24.196000000,0.0678957,-0.267076,-0.005811302,0.09762877,-0.03068121,-0.3858,0.5567865,0.1384568,1.003295,71.81838335504004,0.0736380155299998,121.3918293219,-0.04259453,0.07303227,2.175502
2023-12-22 07:52:24.210000128,0.06978334,-0.2667339,-0.007305056,0.07671473,-0.02785621,-0.3842454,0.558337,0.1088975,1.00822,72.37672035504004,0.1825355155299998,122.4000493219,-0.03475235,0.07359432,2.189392
2023-12-22 07:52:24.224000000,0.07120082,-0.266345,-0.008845504,0.03955836,-0.01706012,-0.3609069,0.5598402,0.07545996,1.013633,72.93656055504003,0.2579954755299998,123.4136823219,-0.02688261,0.07372307,2.203465
2023-12-22 07:52:24.237999872,0.07220031,-0.2659986,-0.01010693,0.009640599,-0.009700703,-0.318565,0.5617672,0.04081472,1.019781,73.49832775504004,0.2988101955299997,124.4334633219,-0.01893631,0.07344113,2.217654
2023-12-22 07:52:24.250999808,0.07303477,-0.2656854,-0.01134548,-0.01990256,-0.003958495,-0.281885,0.5645637,0.00653382,1.026616,74.06289145504003,0.3053440155299998,125.4600793219,-0.01044691,0.07265438,2.232498
2023-12-22 07:52:24.265000192,0.07376874,-0.2654809,-0.0126616,-0.03559623,-0.005507852,-0.2451967,0.5678777,-0.02896647,1.034379,74.63076915504003,0.2763775455299997,126.4944583219,-0.001993738,0.07135706,2.247432
2023-12-22 07:52:24.279000064,0.07352941,-0.2654106,-0.01340566,-0.05897515,-0.009843185,-0.1843162,0.5689644,-0.06085538,1.041715,75.19973355504003,0.2155221655299997,127.5361733219,0.006382775,0.06978759,2.262454
2023-12-22 07:52:24.292999936,0.07297441,-0.2650529,-0.01447223,-0.09651437,-0.002109802,-0.1266748,0.5680869,-0.08978193,1.050738,75.76782045504002,0.1257402355299997,128.5869113219,0.01467559,0.06800234,2.277611
2023-12-22 07:52:24.306999808,0.07308983,-0.2646943,-0.01549298,-0.1106775,0.009753026,-0.1103093,0.5663521,-0.1117281,1.060428,76.33417255504003,0.0140121355299997,129.6473393219,0.02294718,0.06596468,2.292766
2023-12-22 07:52:24.321000192,0.07341734,-0.2647758,-0.01575051,-0.0821992,0.003776776,-0.0963895,0.5654285,-0.1280063,1.07154,76.89960105504002,-0.1139941644700002,130.7188793219,0.03103683,0.06391665,2.307926
2023-12-22 07:52:24.335000064,0.07376608,-0.2653751,-0.01547617,-0.02366623,-0.02167763,-0.06255408,0.5658875,-0.1380463,1.083194,77.46548855504003,-0.2520404644700003,131.8020733219,0.03925233,0.06187405,2.323207
2023-12-22 07:52:24.348999936,0.07475907,-0.2662168,-0.01546401,0.03474592,-0.06459726,-0.0574614,0.5663463,-0.1450596,1.094783,78.03183485504003,-0.3971000644700003,132.8968563219,0.04735922,0.05968236,2.338652
2023-12-22 07:52:24.362999808,0.07499042,-0.2671121,-0.01585707,0.04257195,-0.0962511,-0.05220546,0.5651489,-0.1506259,1.105101,78.59698375504003,-0.5477259644700003,134.0019573219,0.0552166,0.05743643,2.354172
2023-12-22 07:52:24.377000192,0.07440867,-0.2678912,-0.0160148,0.007994682,-0.1068541,-0.02001265,0.5617681,-0.1520187,1.114533,79.15875185504002,-0.6997446644700003,135.1164903219,0.06300772,0.05539461,2.369749
2023-12-22 07:52:24.390000128,0.07446387,-0.26851,-0.01648825,-0.008586905,-0.1120481,-0.01022266,0.5580307,-0.1465066,1.126027,79.71678255504003,-0.8462512644700002,136.24251732189998,0.07083137,0.05363037,2.385499
2023-12-22 07:52:24.404000000,0.07565824,-0.2694731,-0.01700642,0.009508092,-0.1256747,-0.04730155,0.5557797,-0.1333009,1.138313,80.27256225504003,-0.9795521644700004,137.3808303219,0.07873088,0.05212207,2.401495
2023-12-22 07:52:24.418999808,0.07727583,-0.2705608,-0.01790635,0.04257065,-0.1531382,-0.1100078,0.5546726,-0.117218,1.150099,80.82723485504003,-1.0967701644700003,138.5309293219,0.08663078,0.05072051,2.417627
2023-12-22 07:52:24.432000000,0.07831887,-0.2717693,-0.01879935,0.0510782,-0.1751735,-0.140411,0.5538779,-0.1032239,1.159858,81.38111275504004,-1.1999940644700002,139.69078732190002,0.09440562,0.04942155,2.433818
2023-12-22 07:52:24.446000128,0.0787728,-0.2731811,-0.0189681,0.05133595,-0.1944234,-0.1186676,0.5518824,-0.09346856,1.16587,81.93299515504003,-1.2934626244700005,140.85665732190003,0.1021953,0.04817413,2.449872
2023-12-22 07:52:24.460000000,0.07872964,-0.2747361,-0.01892057,0.04480132,-0.2072698,-0.05938046,0.549047,-0.08745345,1.167279,82.48204215504003,-1.3809160744700002,142.02393632190004,0.1099313,0.04690755,2.465803
2023-12-22 07:52:24.473999872,0.07490554,-0.2767016,-0.01789487,-0.02819545,-0.2185619,0.1193135,0.5458933,-0.07702002,1.164418,83.02793545504004,-1.4579360944700002,143.18835432190005,0.1176892,0.04640408,2.481878
2023-12-22 07:52:24.488000000,0.06718718,-0.2793293,-0.01545473,-0.1682034,-0.2329834,0.4694459,0.5464378,-0.03106112,1.16293,83.57437325504004,-1.48899721447,144.35128432190004,0.1256428,0.04829856,2.498163
2023-12-22 07:52:24.500999936,0.07295921,-0.2821512,-0.01614944,-0.01438697,-0.3008494,0.2788061,0.5534813,0.02591842,1.166578,84.12785455504005,-1.46307879447,145.51786232190003,0.1339742,0.04952817,2.514749
2023-12-22 07:52:24.515000064,0.08298125,-0.2851497,-0.01875511,0.2703447,-0.4034891,-0.246766,0.5700253,0.05759409,1.179139,84.69787985504004,-1.40548470447,146.69700132190002,0.1424311,0.04992332,2.531437
2023-12-22 07:52:24.528999936,0.08914115,-0.2874693,-0.02150079,0.3666143,-0.4695658,-0.5704395,0.582847,0.0659887,1.181449,85.28072685504004,-1.3394960044700002,147.8784503219,0.1512131,0.05042249,2.54799
2023-12-22 07:52:24.544000000,0.09143843,-0.2896298,-0.02378271,0.2789735,-0.4703867,-0.5903288,0.5923385,0.06357697,1.175445,85.87306535504004,-1.2759190344700002,149.0538953219,0.1603742,0.05100555,2.564934
2023-12-22 07:52:24.556999936,0.08997677,-0.2914507,-0.02562185,0.09679951,-0.4223823,-0.4085838,0.6011927,0.06352113,1.167405,86.47425805504004,-1.2123979044700002,150.2213003219,0.1695526,0.05202504,2.581631
2023-12-22 07:52:24.571000064,0.08640373,-0.2929356,-0.02690005,-0.1143669,-0.3533338,-0.1328527,0.6101977,0.07834777,1.156912,87.08445575504004,-1.1340501344700002,151.3782123219,0.1794448,0.05372211,2.598839
2023-12-22 07:52:24.584999936,0.08441694,-0.2944445,-0.02823062,-0.2147391,-0.3129569,0.01829199,0.6210429,0.09673934,1.146934,87.70549865504005,-1.0373107944700002,152.5251463219,0.1897438,0.05523115,2.616182
2023-12-22 07:52:24.599000064,0.08157922,-0.2964104,-0.02883711,-0.2503508,-0.2963507,0.1329932,0.6333072,0.1103234,1.135211,88.33880585504005,-0.9269873944700002,153.6603573219,0.2000767,0.05669328,2.632953
2023-12-22 07:52:24.612999936,0.07779518,-0.2985254,-0.0284162,-0.2541577,-0.2839811,0.2740357,0.6428632,0.1165204,1.121568,88.98166905504004,-0.8104669944700003,154.7819253219,0.2099778,0.05817908,2.648941
2023-12-22 07:52:24.627000064,0.07378037,-0.3005927,-0.0267699,-0.2133807,-0.2654507,0.4161561,0.6494141,0.1170078,1.107308,89.63108315504005,-0.6934591944700003,155.88923332189998,0.2195918,0.05972326,2.664444
2023-12-22 07:52:24.640999936,0.06888139,-0.3025621,-0.02415829,-0.1663898,-0.2390028,0.5767294,0.6528262,0.1182546,1.091882,90.28390935504004,-0.5752045944700003,156.98111532189998,0.2291797,0.06151398,2.67977
2023-12-22 07:52:24.656000000,0.06463829,-0.3044392,-0.02166454,-0.1151832,-0.2226771,0.6593112,0.6535158,0.1191967,1.078048,90.93742515504005,-0.4560078944700003,158.05916332189997,0.2387575,0.06326855,2.694981
2023-12-22 07:52:24.668999936,0.06165006,-0.3063711,-0.01931884,-0.05696959,-0.206326,0.6581126,0.653378,0.118225,1.066495,91.59080315504004,-0.3377828944700003,159.12565832189998,0.2488109,0.06483536,2.71071
2023-12-22 07:52:24.681999872,0.06018229,-0.3080137,-0.01726791,0.01750617,-0.2000343,0.5709224,0.6524888,0.1147073,1.057844,92.24329195504004,-0.2230755944700003,160.18350232189997,0.2588058,0.0663287,2.726294
2023-12-22 07:52:24.696000000,0.06021676,-0.3095754,-0.01579394,0.09163676,-0.1967431,0.4264185,0.6522062,0.1088025,1.053538,92.89549815504004,-0.1142730944700003,161.23704032189997,0.2686334,0.06767397,2.74175
2023-12-22 07:52:24.710000128,0.06090061,-0.3109255,-0.01452547,0.1467636,-0.1931425,0.2768494,0.6509951,0.1001841,1.051762,93.54649325504003,-0.0140889944700003,162.28880232189996,0.2786608,0.06884448,2.757534
2023-12-22 07:52:24.724000000,0.06209435,-0.312106,-0.0136324,0.1880436,-0.1814232,0.1454622,0.6481898,0.08674417,1.050958,94.19468305504004,0.0726551755299996,163.33976032189997,0.2886969,0.06967714,2.773422
2023-12-22 07:52:24.737999872,0.06325632,-0.3129628,-0.01298471,0.1964715,-0.162807,0.05222091,0.6441715,0.06853975,1.051264,94.83885455504004,0.1411949255299996,164.39102432189998,0.2980757,0.07013275,2.788639
2023-12-22 07:52:24.752000000,0.06410368,-0.3135266,-0.01231333,0.1845086,-0.1305212,0.00483774,0.63981,0.04585536,1.052165,95.47866455504004,0.1870502855299997,165.44318932189998,0.3074187,0.07018652,2.803873
2023-12-22 07:52:24.766000128,0.06461546,-0.3137051,-0.01185107,0.1644673,-0.09081609,-0.01130736,0.6360564,0.0197611,1.053599,96.11472095504004,0.2068113855299997,166.49678832189997,0.3164588,0.06986874,2.818718
2023-12-22 07:52:24.780000000,0.06453811,-0.3135387,-0.01130791,0.1191392,-0.03790707,8.379293e-05,0.6339568,-0.007795158,1.05603,96.74867775504003,0.1990162275299997,167.55281832189996,0.3255717,0.06920431,2.833566
2023-12-22 07:52:24.792999936,0.06402507,-0.3130016,-0.01081024,0.0767333,0.007624487,0.03447524,0.6336104,-0.03295248,1.059138,97.38228815504004,0.1660637475299997,168.61195632189995,0.3347199,0.06819636,2.848347
2023-12-22 07:52:24.808000000,0.06349247,-0.3123383,-0.01022019,0.04755853,0.05493978,0.06033451,0.6348519,-0.05617905,1.061752,98.01714005504004,0.1098846975299996,169.67370832189997,0.343644,0.06690013,2.86296
2023-12-22 07:52:24.821000192,0.06315264,-0.3116703,-0.009475184,0.03684763,0.08546325,0.07137368,0.6369198,-0.07728054,1.063623,98.65405985504005,0.0326041575299996,170.73733132189997,0.3525966,0.06534944,2.877577
2023-12-22 07:52:24.835000064,0.06250943,-0.3107303,-0.008996615,0.01978868,0.1128995,0.08647716,0.6406738,-0.09331229,1.063389,99.29473365504003,-0.0607081324700003,171.80072032189997,0.3616437,0.06385825,2.892076
2023-12-22 07:52:24.848999936,0.06235755,-0.3099393,-0.008397859,0.02209834,0.1249292,0.07792713,0.6462587,-0.1028631,1.062543,99.94099235504004,-0.1635712324700003,172.86326332189998,0.3708509,0.06234225,2.906581
2023-12-22 07:52:24.864000000,0.06309807,-0.3092314,-0.007952158,0.04569584,0.1264473,0.02896431,0.6542556,-0.1095078,1.061441,100.59524795504004,-0.2730790324700003,173.92470432189998,0.3802134,0.06067166,2.921054
2023-12-22 07:52:24.877000192,0.06391169,-0.3085026,-0.007489367,0.06837706,0.1252786,-0.01096265,0.6627463,-0.1150586,1.059951,101.25799425504005,-0.3881376324700003,174.9846553219,0.3896724,0.05885683,2.935531
2023-12-22 07:52:24.892000000,0.06448594,-0.3075672,-0.007107713,0.08300395,0.1286493,-0.03475274,0.6709408,-0.1221523,1.057584,101.92893505504004,-0.5102899324700003,176.04223932189998,0.3992209,0.05694328,2.95
2023-12-22 07:52:24.904999936,0.06492376,-0.3063699,-0.006749467,0.07674558,0.1460195,-0.04810562,0.6780165,-0.1310294,1.054663,102.60695155504004,-0.6413193324700003,177.0969023219,0.4087709,0.05490033,2.964346
2023-12-22 07:52:24.918999808,0.06529327,-0.3046352,-0.006432307,0.06477805,0.1838622,-0.04685892,0.6848958,-0.1381381,1.052032,103.29184735504003,-0.7794574324700003,178.1489343219,0.4184286,0.05286659,2.978623
2023-12-22 07:52:24.932000000,0.06562801,-0.3026783,-0.006155205,0.05669571,0.2218155,-0.0500688,0.6913831,-0.1417426,1.049595,103.98323045504004,-0.9212000324700004,179.1985293219,0.4281354,0.05084908,2.992892
2023-12-22 07:52:24.947000064,0.06604004,-0.3007085,-0.005250918,0.06412883,0.2598661,-0.04493969,0.6987176,-0.1411776,1.046597,104.68194805504002,-1.0623776324700005,180.2451263219,0.4379479,0.04894203,3.007149
2023-12-22 07:52:24.960000000,0.06668422,-0.2989232,-0.004082558,0.0951135,0.2765094,-0.03986167,0.7054259,-0.1390484,1.043821,105.38737395504002,-1.2014260324700003,181.2889473219,0.447789,0.04709598,3.021427
2023-12-22 07:52:24.973999872,0.06706658,-0.2970691,-0.002811903,0.1234288,0.2861614,-0.01818091,0.7108654,-0.135022,1.040335,106.09823935504002,-1.3364480324700003,182.3292823219,0.4577182,0.04536365,3.035644
2023-12-22 07:52:24.988000000,0.06716329,-0.2952124,-0.001749248,0.1243441,0.2963591,0.004969198,0.7136603,-0.127814,1.036003,106.81189965504002,-1.4642620324700004,183.3652853219,0.4675638,0.04379708,3.049789
2023-12-22 07:52:25.002000128,0.06736325,-0.2932809,-0.0003011618,0.1278098,0.3022128,0.02026851,0.7116765,-0.1197479,1.031089,107.52357615504002,-1.5840099324700003,184.3963743219,0.4774309,0.04226265,3.063955
2023-12-22 07:52:25.016000000,0.06488112,-0.291436,0.001484017,0.08695786,0.3182386,0.1252856,0.7065776,-0.1042083,1.025713,108.23015375504002,-1.6882182324700004,185.4220873219,0.4872259,0.04150155,3.078164
2023-12-22 07:52:25.029999872,0.05954565,-0.2895162,0.003230025,-0.04707356,0.3404036,0.3376579,0.7040251,-0.05637385,1.025365,108.93417885504002,-1.7445920824700003,186.4474523219,0.4972686,0.04280137,3.092667
2023-12-22 07:52:25.045000192,0.06402493,-0.2871414,0.001115516,-0.04844907,0.3231992,0.08807503,0.7092202,0.01137986,1.033707,109.64339905504002,-1.7332122224700004,187.4811593219,0.5076013,0.04433042,3.107627
2023-12-22 07:52:25.058000128,0.07652257,-0.2845663,-0.00441736,0.1290332,0.2329442,-0.5984476,0.718868,0.05585507,1.051469,110.36226705504002,-1.6773571524700004,188.5326283219,0.5178891,0.04452967,3.122814
2023-12-22 07:52:25.071000064,0.08492015,-0.2826427,-0.006886694,0.2941036,0.1490755,-0.9722911,0.7159248,0.06442068,1.056637,111.07819185504002,-1.6129364724700004,189.5892653219,0.5278056,0.04460746,3.137689
2023-12-22 07:52:25.085999872,0.08744609,-0.2817333,-0.006431676,0.3339761,0.1150143,-0.8407558,0.7002267,0.05024882,1.049289,111.77841855504002,-1.5626876524700004,190.6385543219,0.5375401,0.04472932,3.152633
2023-12-22 07:52:25.099000064,0.08542129,-0.2817697,-0.003292562,0.2846595,0.1106838,-0.4083869,0.6810058,0.02971682,1.040459,112.45942435504,-1.5329708324700004,191.6790133219,0.547078,0.0449269,3.167706
2023-12-22 07:52:25.112999936,0.08003784,-0.2821659,0.001218964,0.1809306,0.1239885,0.1532361,0.6579967,0.01953965,1.029292,113.11742105504,-1.5134311824700004,192.7083053219,0.5569149,0.04560488,3.183526
2023-12-22 07:52:25.127000064,0.07493904,-0.282441,0.004476824,0.06288364,0.128118,0.4982168,0.6387626,0.02502146,1.022591,113.75618365504002,-1.4884097224700004,193.7308963219,0.5667123,0.04656285,3.199584
2023-12-22 07:52:25.141999872,0.0714481,-0.2823305,0.006059765,-0.03541441,0.1188697,0.5816088,0.6229912,0.04471552,1.021358,114.37917485504002,-1.4436942024700004,194.75225432189995,0.575435,0.04785743,3.214264
2023-12-22 07:52:25.155000064,0.06926209,-0.2821322,0.006684263,-0.08713257,0.107372,0.5110323,0.6103929,0.07453447,1.025388,114.98956775504,-1.3691597324700004,195.77764232189995,0.5839989,0.04957046,3.229087
2023-12-22 07:52:25.168999936,0.06705822,-0.2817442,0.00598682,-0.1520621,0.08994807,0.381932,0.5991033,0.1101427,1.03233,115.58867105504,-1.2590170324700003,196.80997232189995,0.5923178,0.05180453,3.243703
2023-12-22 07:52:25.183000064,0.06567927,-0.2811683,0.004654099,-0.2098671,0.0833581,0.2432797,0.5895008,0.1453742,1.038139,116.17817185504,-1.1136428324700005,197.84811132189995,0.6005422,0.05435091,3.258354
2023-12-22 07:52:25.196999936,0.06526727,-0.2808625,0.003528709,-0.2185271,0.0630468,0.1107523,0.5813821,0.1722304,1.043993,116.75955395504,-0.9414124324700004,198.89210432189995,0.608618,0.05689737,3.27288
2023-12-22 07:52:25.211000064,0.0646866,-0.2805866,0.001888264,-0.2157526,0.04159214,0.0157991,0.5750064,0.1874506,1.046992,117.33456035504,-0.7539618324700005,199.9390963219,0.6163791,0.05943833,3.287041
2023-12-22 07:52:25.224999936,0.06450733,-0.2805704,0.0001888191,-0.216711,0.01149453,-0.0499069,0.5708131,0.1901737,1.048777,117.90537345504,-0.5637881324700005,200.9878733219,0.6241342,0.06167983,3.301237
2023-12-22 07:52:25.237999872,0.06426652,-0.2806107,-0.00130446,-0.2055359,-0.01287043,-0.08484566,0.5694268,0.1817632,1.049892,118.47480025504,-0.3820249324700004,202.0377653219,0.6321609,0.06366913,3.315831
2023-12-22 07:52:25.252999936,0.06401613,-0.2809497,-0.002481325,-0.1821822,-0.03606737,-0.08808932,0.5704125,0.1653574,1.05122,119.04521275504,-0.2166675324700004,203.0889853219,0.6402294,0.06536438,3.330484
2023-12-22 07:52:25.266000128,0.06416415,-0.281343,-0.003686568,-0.1558474,-0.05673614,-0.09400105,0.5731364,0.1427455,1.053016,119.61834915504,-0.0739220324700004,204.14200132189995,0.6484122,0.06658455,3.345163
2023-12-22 07:52:25.280999936,0.06394907,-0.2816742,-0.004968788,-0.1467403,-0.07156464,-0.09485538,0.5760438,0.1154119,1.055906,120.19439295504,0.0414898675299995,205.19790732189995,0.6566047,0.06738956,3.35991
2023-12-22 07:52:25.292999936,0.06366163,-0.281705,-0.006285991,-0.1499863,-0.06275978,-0.1000718,0.5784935,0.08268954,1.059478,120.77288645504,0.1241794075299995,206.2573853219,0.6647524,0.06770288,3.374717
2023-12-22 07:52:25.308000000,0.06322023,-0.281633,-0.007473566,-0.1583002,-0.04802581,-0.09064342,0.5795659,0.05028681,1.064001,121.35245235504,0.1744662175299995,207.32138632189995,0.6728646,0.06755274,3.389622
2023-12-22 07:52:25.321000192,0.06284209,-0.2814347,-0.008573194,-0.1617532,-0.02758315,-0.0772153,0.5809779,0.01826653,1.069001,121.93343025504,0.1927327475299995,208.3903873219,0.6810049,0.06697978,3.404584
2023-12-22 07:52:25.335000064,0.0623996,-0.2813447,-0.009532323,-0.1558848,-0.01732229,-0.06395268,0.5825014,-0.01236178,1.074847,122.51593165504,0.1803709675299995,209.4652343219,0.6892276,0.06606827,3.419683
2023-12-22 07:52:25.348999936,0.06185961,-0.2812244,-0.01041379,-0.1492433,-0.01142411,-0.04864525,0.5838767,-0.0407681,1.080618,123.09980835504,0.1396028675299995,210.5458523219,0.6974285,0.06482249,3.434874
2023-12-22 07:52:25.362999808,0.06138784,-0.2810928,-0.01111984,-0.1467382,-0.00620591,-0.03986206,0.5843148,-0.06846391,1.086516,123.68412315504,0.0711389575299995,211.63236832189992,0.7055852,0.0632577,3.450079
2023-12-22 07:52:25.377000192,0.06097938,-0.2811781,-0.0115993,-0.1285257,-0.006425307,-0.02308209,0.5835763,-0.09302805,1.092006,124.26769945504,-0.0218890924700004,212.72437432189992,0.713599,0.06137691,3.465336
2023-12-22 07:52:25.391000064,0.06069918,-0.2815977,-0.01169474,-0.08976077,-0.02375622,-0.004434983,0.5819329,-0.1168908,1.097389,124.84963235504,-0.1387798924700004,213.8217633218999,0.7216114,0.05922342,3.480647
2023-12-22 07:52:25.404999936,0.06037533,-0.2820755,-0.01208018,-0.06939522,-0.04390559,0.006993588,0.5795918,-0.1350222,1.103121,125.42922415504,-0.2738020924700005,214.9248843218999,0.7295532,0.05700407,3.496096
2023-12-22 07:52:25.418999808,0.06089926,-0.2826126,-0.01225011,-0.03830797,-0.06118988,-0.01335052,0.5758573,-0.1493026,1.110076,126.00508145504,-0.4231046924700005,216.0349603218999,0.7374167,0.05464765,3.51162
2023-12-22 07:52:25.433000192,0.06162329,-0.283187,-0.01257298,-0.005910281,-0.07781342,-0.04144268,0.5707105,-0.1606593,1.118089,126.57579195504,-0.5837639924700004,217.15304932189989,0.745207,0.05213752,3.527235
2023-12-22 07:52:25.447000064,0.0618203,-0.2838374,-0.01280939,0.007231824,-0.08761469,-0.04973423,0.5652585,-0.1701359,1.126892,127.14105045504,-0.7538998924700004,218.27994132189988,0.7529393,0.04962134,3.543005
2023-12-22 07:52:25.460999936,0.06096753,-0.2845779,-0.01286467,-0.01419643,-0.09808166,-0.004617408,0.5600412,-0.1727121,1.135017,127.70109165504,-0.9266119924700004,219.4149583218999,0.7606221,0.04730252,3.558877
2023-12-22 07:52:25.474999808,0.06021015,-0.2855136,-0.01317963,-0.04269539,-0.1152548,0.03673729,0.5561229,-0.1674159,1.143324,128.25721455504,-1.0940278924700004,220.5582823218999,0.7683481,0.04518656,3.574913
2023-12-22 07:52:25.488000000,0.06033351,-0.2865142,-0.01424452,-0.06003835,-0.135051,0.007462783,0.5551317,-0.1573509,1.151096,128.81234625504,-1.2513787924700004,221.7093783218999,0.7761674,0.04324007,3.591163
2023-12-22 07:52:25.502000128,0.06054905,-0.2876887,-0.01520785,-0.06303673,-0.1605033,-0.03226534,0.555585,-0.1437597,1.158695,129.36793125504002,-1.3951384924700003,222.86807332189989,0.7839759,0.04154351,3.607497
2023-12-22 07:52:25.516000000,0.060865,-0.2889477,-0.01587372,-0.05372985,-0.1819088,-0.05401879,0.5555909,-0.1270848,1.164971,129.92352215504002,-1.5222232924700003,224.0330443218999,0.7916294,0.04007762,3.623703
2023-12-22 07:52:25.530999808,0.06164429,-0.290051,-0.01638414,-0.02923001,-0.1851254,-0.07542568,0.5547957,-0.1102033,1.168555,130.47831785504002,-1.6324265924700003,225.2015993218999,0.7992067,0.03867392,3.639806
2023-12-22 07:52:25.545000192,0.06050734,-0.2911853,-0.01650523,-0.0344864,-0.1796226,-0.02512535,0.5523205,-0.0928006,1.167906,131.03063835504005,-1.7252271924700002,226.36950532189988,0.8067864,0.03780861,3.655835
2023-12-22 07:52:25.558000128,0.05442442,-0.2926727,-0.01448109,-0.1196763,-0.1650844,0.2547395,0.5536951,-0.04988303,1.168278,131.58433345504002,-1.7751102224700002,227.53778332189987,0.8146569,0.03913608,3.672062
2023-12-22 07:52:25.572000000,0.05544815,-0.2949839,-0.01332595,-0.04529904,-0.2025079,0.29557,0.5603838,0.02214704,1.173087,132.14471725504004,-1.7529631824700005,228.71087032189988,0.8227962,0.04158288,3.688664
2023-12-22 07:52:25.584999936,0.06732107,-0.2971736,-0.01543677,0.2616647,-0.2903385,-0.224276,0.5773277,0.07801414,1.188416,132.72204495504005,-1.6749490424700002,229.8992863218999,0.8313686,0.04277382,3.705515
2023-12-22 07:52:25.599000064,0.07734308,-0.2987224,-0.0191984,0.4277745,-0.363006,-0.7435396,0.5920824,0.1002891,1.194504,133.31412735504006,-1.5746599424700003,231.09379032189983,0.8396567,0.04352803,3.721679
2023-12-22 07:52:25.612999936,0.0808128,-0.3000843,-0.021431,0.3589548,-0.3632937,-0.8117105,0.5985146,0.1000523,1.185636,133.91264195504004,-1.4746076424700003,232.27942632189985,0.8483127,0.04453025,3.738161
2023-12-22 07:52:25.627000064,0.0796234,-0.3011783,-0.02300834,0.1531969,-0.3145479,-0.5757599,0.6036752,0.09356432,1.171742,134.51631715504004,-1.3810433224700005,233.45116832189984,0.8572344,0.04560485,3.754637
2023-12-22 07:52:25.641999872,0.07502198,-0.3021175,-0.02395139,-0.08764969,-0.2443498,-0.1887549,0.6087546,0.09444217,1.15433,135.12507175504004,-1.2866011524700005,234.60549832189983,0.8661065,0.04711129,3.770679
2023-12-22 07:52:25.655000064,0.06913182,-0.3031737,-0.02419666,-0.2799811,-0.1947489,0.1645315,0.6139628,0.103741,1.135101,135.73903455504004,-1.1828601524700002,235.74059932189985,0.8753285,0.0488407,3.78691
2023-12-22 07:52:25.668999936,0.06378063,-0.3041953,-0.02398464,-0.3631202,-0.1620388,0.3882074,0.6201085,0.1154277,1.116192,136.35914305504002,-1.0674324524700003,236.85679132189983,0.8846039,0.05057212,3.802754
2023-12-22 07:52:25.683000064,0.05813572,-0.3055528,-0.02246148,-0.3613542,-0.1514685,0.5658744,0.6252984,0.125788,1.097004,136.98444145504,-0.9416444524700004,237.95379532189983,0.8938149,0.05242988,3.818282
2023-12-22 07:52:25.696000000,0.05244156,-0.3075314,-0.01986134,-0.2926138,-0.1626613,0.7122912,0.6280511,0.1338153,1.07755,137.61249255504,-0.8078291524700003,239.03134532189983,0.9029467,0.05456054,3.833544
2023-12-22 07:52:25.710000128,0.04826071,-0.3094384,-0.01731338,-0.1914988,-0.1857953,0.7555537,0.6306448,0.1453263,1.05863,138.24313735504,-0.6625028524700003,240.08997532189983,0.9122173,0.05705029,3.848622
2023-12-22 07:52:25.724000000,0.04670502,-0.3115357,-0.0155249,-0.07777914,-0.2133336,0.6491131,0.6337356,0.1630098,1.044938,138.87687295504,-0.4994930524700003,241.13491332189983,0.9215235,0.0598257,3.863771
2023-12-22 07:52:25.737999872,0.04830196,-0.31332,-0.01492811,0.0419801,-0.2385546,0.3950538,0.6373201,0.1775247,1.03695,139.51419305504,-0.3219683524700003,242.17186332189985,0.9308295,0.06232235,3.878725
2023-12-22 07:52:25.752000000,0.05028955,-0.3151445,-0.01469047,0.1342791,-0.254452,0.1482425,0.6391031,0.1790346,1.030272,140.15329615504,-0.1429337524700003,243.20213532189985,0.9396375,0.06447209,3.892929
2023-12-22 07:52:25.766000128,0.05177192,-0.3170278,-0.01434537,0.1679465,-0.2650955,0.01006937,0.6379253,0.1667255,1.024694,140.79122145504002,0.0237917475299996,244.22682932189983,0.9484352,0.06629125,3.907123
2023-12-22 07:52:25.780000000,0.05332791,-0.3186623,-0.01429699,0.1732064,-0.2669341,-0.06696486,0.6363263,0.1448674,1.021441,141.42754775504002,0.1686591475299996,245.24827032189984,0.9571165,0.06761534,3.920975
2023-12-22 07:52:25.793999872,0.05480698,-0.3201808,-0.01451072,0.1618684,-0.2589957,-0.1151288,0.6344616,0.1160622,1.021244,142.06200935504003,0.2847213475299996,246.26951432189983,0.9656581,0.06844321,3.93471
2023-12-22 07:52:25.808000000,0.05647402,-0.3215235,-0.01476969,0.1473929,-0.2450829,-0.1499373,0.6331306,0.08472589,1.024021,142.69513995504002,0.3694472375299996,247.29353532189984,0.9743186,0.06883533,3.948764
2023-12-22 07:52:25.822000128,0.05779167,-0.3226972,-0.01488058,0.1329252,-0.2248553,-0.1554095,0.6326128,0.05096707,1.028865,143.32775275504002,0.4204143075299996,248.32240032189983,0.9832323,0.06875467,3.963461
2023-12-22 07:52:25.836000000,0.05835003,-0.3236889,-0.01493658,0.1074729,-0.2011965,-0.1290075,0.6322146,0.01383215,1.034338,143.95996735504002,0.4342464575299996,249.35673832189983,0.9921468,0.06820711,3.978196
2023-12-22 07:52:25.849999872,0.05797902,-0.324411,-0.01522554,0.05568859,-0.1671896,-0.0743203,0.6321369,-0.02191243,1.039185,144.59210425504003,0.4123340275299996,250.39592332189983,1.000977,0.06713063,3.992785
2023-12-22 07:52:25.864000000,0.05654189,-0.3246398,-0.01552147,-0.01764533,-0.121888,0.009068545,0.6323915,-0.05365794,1.043918,145.22449575504004,0.3586760875299996,251.43984132189985,1.009826,0.06577311,4.007331
2023-12-22 07:52:25.878000128,0.05544277,-0.3246872,-0.01547202,-0.0611327,-0.07314268,0.06837139,0.6339215,-0.08155408,1.049274,145.85841725504005,0.2771220075299996,252.48911532189985,1.018665,0.0641699,4.021863
2023-12-22 07:52:25.891000064,0.05476844,-0.3245381,-0.01570143,-0.07801908,-0.03106504,0.08013695,0.6374043,-0.1025112,1.05424,146.49582155504004,0.1746108075299996,253.5433553218998,1.027506,0.06238382,4.036401
2023-12-22 07:52:25.905999872,0.05426965,-0.3241422,-0.01607612,-0.07722133,0.001546579,0.06648996,0.6422849,-0.1184204,1.058086,147.13810645504003,0.0561904075299996,254.6014413218998,1.036428,0.06045724,4.050917
2023-12-22 07:52:25.918999808,0.05435002,-0.3234985,-0.01631816,-0.07324032,0.03716615,0.03031485,0.6477866,-0.1306133,1.060958,147.78589305504002,-0.0744228924700003,255.6623993218998,1.045439,0.05834848,4.065388
2023-12-22 07:52:25.933000192,0.05473455,-0.3223271,-0.01675695,-0.05762452,0.0835043,-0.01367844,0.6535223,-0.1406059,1.062735,148.43941535504,-0.2150287924700004,256.7251343218998,1.054558,0.05611261,4.079811
2023-12-22 07:52:25.947000064,0.05533632,-0.3206484,-0.0171347,-0.0434941,0.1397129,-0.06223454,0.6598107,-0.1488856,1.062779,149.09922605504002,-0.3639143924700004,257.7879133218998,1.063726,0.05389724,4.094296
2023-12-22 07:52:25.960999936,0.05593674,-0.3185762,-0.01745252,-0.03270613,0.1991186,-0.09983891,0.6674209,-0.1534828,1.061442,149.76664695504002,-0.5173971924700004,258.8493553218998,1.073038,0.05173074,4.108741
2023-12-22 07:52:25.974999808,0.05702377,-0.3161646,-0.01786839,-0.02506483,0.2589903,-0.1341739,0.6763939,-0.1544579,1.059797,150.44304085504,-0.6718550924700004,259.9091523218998,1.082473,0.04955669,4.123152
2023-12-22 07:52:25.988000000,0.05779561,-0.3132472,-0.01797107,-0.01948047,0.3220327,-0.1540081,0.6849067,-0.1535844,1.057692,151.12794755504,-0.8254394924700004,260.96684432189977,1.092001,0.04742711,4.137526
2023-12-22 07:52:26.002000128,0.05793756,-0.3098746,-0.01746782,-0.007556005,0.3947347,-0.1257907,0.6918206,-0.1499875,1.055224,151.81976815504,-0.9754269924700004,262.0220683218998,1.101555,0.04550928,4.151826
2023-12-22 07:52:26.016000000,0.05835714,-0.3061742,-0.01625146,0.02760687,0.468519,-0.08273588,0.6972651,-0.1439683,1.052287,152.51703325504002,-1.1193952924700004,263.07435532189976,1.111006,0.04368944,4.165877
2023-12-22 07:52:26.029999872,0.05841657,-0.3025172,-0.01450464,0.07609227,0.5224023,-0.02348186,0.7020852,-0.135677,1.049143,153.21911845504002,-1.2550722924700004,264.1234983218998,1.120496,0.04209713,4.179875
2023-12-22 07:52:26.044000000,0.05815313,-0.298834,-0.01238255,0.109633,0.5547343,0.03937773,0.7064931,-0.1237211,1.04428,153.92561155504,-1.3787933924700004,265.1677783218998,1.129944,0.04081929,4.193363
2023-12-22 07:52:26.056999936,0.0585219,-0.2953219,-0.01064481,0.1324419,0.5697199,0.05162396,0.709446,-0.1107697,1.036272,154.63505755504002,-1.4895630924700003,266.2040503218998,1.139256,0.03953501,4.20647
2023-12-22 07:52:26.072000000,0.05708418,-0.2917712,-0.008920019,0.1126,0.5721821,0.1073244,0.7092008,-0.0954733,1.027789,155.34425835504,-1.5850363924700006,267.23183932189977,1.148444,0.03875464,4.219536
2023-12-22 07:52:26.084999936,0.05165837,-0.2882065,-0.006552846,-0.01302077,0.5878822,0.3212765,0.7093278,-0.05377211,1.026042,156.05358615504002,-1.6388085024700003,268.2578813218998,1.157521,0.03990279,4.232735
2023-12-22 07:52:26.099000064,0.05309077,-0.2835856,-0.007403364,-0.07523861,0.6151061,0.2166016,0.7143154,0.01794907,1.034593,156.76790155504003,-1.6208594324700003,269.29247432189976,1.166907,0.0421105,4.246316
2023-12-22 07:52:26.112999936,0.06609783,-0.2787523,-0.01180198,0.1340487,0.5827731,-0.4917514,0.7263418,0.07858972,1.057703,157.49424335504003,-1.5422697124700004,270.35017732189976,1.176404,0.04328272,4.260142
2023-12-22 07:52:26.128000000,0.07762916,-0.2748602,-0.01520396,0.3646455,0.4965243,-1.037882,0.7307774,0.1026161,1.069766,158.22502075504002,-1.4396536124700003,271.4199433218998,1.185539,0.0440719,4.273292
2023-12-22 07:52:26.141999872,0.08384049,-0.2725952,-0.01626123,0.4500903,0.3961613,-1.108344,0.7247831,0.1004185,1.06516,158.94980385504002,-1.3392351124700004,272.48510332189977,1.194484,0.04499093,4.286319
2023-12-22 07:52:26.155000064,0.0857266,-0.27113,-0.01565361,0.3973893,0.3081242,-0.8399848,0.7130646,0.08572643,1.053992,159.66286845504,-1.2535086824700004,273.53909532189977,1.20314,0.04574031,4.298975
2023-12-22 07:52:26.168000000,0.08212643,-0.2703477,-0.01283662,0.2394348,0.2724077,-0.3173146,0.6963879,0.07452518,1.042909,160.35925635504,-1.1789835024700004,274.5820043218998,1.211465,0.04703021,4.311705
2023-12-22 07:52:26.183000064,0.07819803,-0.2693786,-0.009148643,0.1232608,0.2778776,0.1265635,0.6780945,0.07441729,1.036869,161.03735085504,-1.1045662124700004,275.6188733218998,1.218782,0.0484171,4.32293
2023-12-22 07:52:26.196999936,0.07527329,-0.2682234,-0.006164124,0.06083764,0.288372,0.3677731,0.6624718,0.08598374,1.037972,161.69982265503998,-1.0185824724700003,276.6568453218998,1.225946,0.05016301,4.334155
2023-12-22 07:52:26.211000064,0.07341159,-0.2670259,-0.004358717,0.02221981,0.2783677,0.4126489,0.649973,0.107468,1.043304,162.34979565503997,-0.9111144724700004,277.7001493218998,1.23373,0.05217681,4.346785
2023-12-22 07:52:26.224999936,0.07114036,-0.2657177,-0.003649228,-0.0428541,0.2643786,0.3687194,0.6420257,0.1301786,1.050326,162.99182135503997,-0.7809358724700003,278.7504753218998,1.241961,0.0543517,4.360601
2023-12-22 07:52:26.237999872,0.06833433,-0.2642167,-0.003187041,-0.1242088,0.2608197,0.3358428,0.6350853,0.1520364,1.055307,163.62690665503996,-0.6288994724700003,279.8057823218998,1.25014,0.05678911,4.374444
2023-12-22 07:52:26.252000000,0.06651676,-0.2629617,-0.002671223,-0.1515734,0.2477519,0.2875091,0.6285596,0.167591,1.05829,164.25546625503995,-0.4613084724700003,280.8640723218998,1.258607,0.05909078,4.388979
2023-12-22 07:52:26.266000128,0.06505487,-0.2621583,-0.002191657,-0.1427811,0.2112939,0.2425515,0.6231338,0.1744896,1.057719,164.87860005503995,-0.2868188724700004,281.92179132189983,1.267053,0.06136646,4.403417
2023-12-22 07:52:26.280000000,0.06417003,-0.2616191,-0.00231207,-0.134494,0.1667663,0.1810823,0.6195422,0.1746348,1.054792,165.49814225503997,-0.1121840724700003,282.97658332189985,1.275426,0.06347748,4.417773
2023-12-22 07:52:26.293999872,0.06398893,-0.2613236,-0.002825134,-0.1098768,0.1144483,0.0939474,0.6168544,0.1666946,1.051843,166.11499665503996,0.0545105275299996,284.0284263218999,1.283736,0.06536469,4.432132
