"Time (s)","Linear Acceleration x (m/s^2)","Linear Acceleration y (m/s^2)","Linear Acceleration z (m/s^2)"
1.612337180E-1,-3.723430634E-2,5.090880394E-2,-2.082788944E-2
1.802486140E-1,4.771232605E-3,3.753715754E-2,1.504182816E-3
1.992635100E-1,-8.483886719E-3,-1.479879022E-3,6.029844284E-3
2.182784570E-1,-6.938076019E-2,-4.634683579E-2,1.698386669E-2
2.372933530E-1,-6.820106506E-2,-3.254854679E-2,-1.593852043E-2
2.563082490E-1,-1.666164398E-2,-3.392167389E-2,-1.560294628E-2
2.753231970E-1,-1.776599884E-2,-1.303240657E-2,-1.490175724E-2
2.943380930E-1,-2.754592896E-2,3.080098331E-2,-3.578329086E-2
3.133529890E-1,-2.921009064E-2,-2.584232390E-2,-1.566529274E-2
3.323679370E-1,-3.188514709E-2,-5.456075072E-2,-3.420412540E-2
3.513828320E-1,-2.659416199E-2,-1.862047613E-2,-6.132924557E-2
3.703977800E-1,-2.427387238E-2,-7.515802979E-3,-5.084729195E-2
3.894126760E-1,-2.657890320E-3,-2.576537430E-2,-3.439950943E-2
4.084275720E-1,-1.310157776E-2,-2.976132929E-2,-1.775383949E-2
4.274424680E-1,-4.778766632E-2,-8.205458522E-3,-1.853334904E-2
4.464574160E-1,-4.700183868E-2,2.389791608E-2,-1.011943817E-2
4.654723120E-1,5.744934082E-3,3.495381773E-2,-7.693886757E-3
4.844872600E-1,1.424980164E-2,8.837625384E-3,-3.093600273E-2
5.035021550E-1,-3.865051270E-2,-2.602611482E-2,-1.299730539E-1
5.225170510E-1,-1.606359482E-1,2.045637369E-2,2.776236534E-1
5.415319990E-1,-1.340684891E-1,9.203162789E-2,2.600204945E-2
5.605468950E-1,3.565216064E-2,5.352079868E-2,-1.204086542E-1
5.795617910E-1,1.241111755E-2,2.007187009E-1,-7.925009727E-2
5.985767390E-1,-5.202007294E-2,-4.276773334E-2,-1.284009218E-1
6.175916350E-1,-5.195808411E-2,1.326930523E-2,-7.059395313E-2
6.366065300E-1,-2.694416046E-2,-2.750974894E-2,-1.560902596E-2
6.556214780E-1,-1.610565186E-2,-4.496577382E-2,1.319730282E-2
6.746363740E-1,-4.532337189E-2,-2.237400413E-2,-2.156257629E-3
6.936512700E-1,-8.094978333E-2,-3.700383008E-2,1.309037209E-2
7.126662180E-1,-7.715225220E-2,-5.256052315E-2,1.166152954E-2
7.316811140E-1,6.554603577E-3,-1.289322972E-2,-9.314537048E-3
7.506960100E-1,2.262210846E-2,-7.105708122E-3,-6.169998646E-2
7.697109570E-1,-5.682945251E-2,1.999735832E-3,-9.566462040E-2
7.887258530E-1,-1.261329651E-1,-1.674258709E-2,-6.741487980E-2
8.077407490E-1,-2.674961090E-2,-1.019309461E-1,-1.126444340E-2
8.267556970E-1,1.332759857E-2,-1.820766926E-1,4.011106491E-2
8.457705930E-1,-3.367137909E-2,-1.599321812E-1,3.380823135E-2
8.647854890E-1,-3.690338135E-2,-1.442177296E-1,1.417112350E-2
8.838003850E-1,-3.410339355E-2,-1.834765822E-1,-6.612062454E-3
9.028153320E-1,-2.285957336E-2,-2.051430494E-1,-9.184479713E-3
9.218302280E-1,-3.765964508E-2,-2.094419599E-1,-2.189087868E-2
9.408451240E-1,-5.818462372E-2,-1.503067464E-1,-5.260670185E-2
9.598600720E-1,6.981849670E-3,-9.411281347E-2,-4.546916485E-2
9.788749680E-1,1.367187500E-2,-9.155616164E-2,-3.500437737E-2
9.978898640E-1,-1.227188110E-2,-1.067880094E-1,-3.902602196E-2
1.016904812E0,-5.213546753E-2,-8.578880131E-2,-9.011363983E-2
1.035919707E0,-3.651809692E-2,-4.086437821E-2,-1.179323196E-1
1.054934603E0,-1.972389221E-2,9.316205978E-4,-1.181130409E-1
1.073949551E0,-1.459217072E-2,2.351790667E-2,-1.169180870E-1
1.092964447E0,2.490425110E-2,5.288007855E-2,-1.867220402E-1
1.111979343E0,4.599761963E-2,7.313087583E-2,-2.844504118E-1
1.130994239E0,4.090881348E-2,8.674526215E-2,-3.122199774E-1
1.150009187E0,1.429367065E-2,7.526347041E-2,-3.047894239E-1
1.169024082E0,-7.167816162E-3,6.116613746E-2,-2.872765064E-1
1.188038978E0,2.011013031E-2,5.464825034E-2,-2.637268305E-1
1.207053926E0,1.486492157E-2,7.679882646E-2,-2.601493597E-1
1.226068822E0,3.347206116E-2,8.602139354E-2,-2.533618212E-1
1.245083718E0,4.637622833E-2,5.477246642E-2,-2.495992184E-1
1.264098614E0,-1.812267303E-2,8.020403981E-2,-2.111725807E-1
1.283113562E0,-1.190280914E-2,5.543434620E-2,-2.317367792E-1
1.302128457E0,6.896018982E-3,1.164311171E-2,-2.287160158E-1
1.321143353E0,1.957416534E-2,-2.313312888E-2,-1.846039295E-1
1.340158301E0,3.121376038E-3,-4.065340757E-2,-1.593487263E-1
1.359173197E0,-1.047992706E-2,-5.590742826E-2,-1.507775784E-1
1.378188093E0,-1.849937439E-2,-5.348846316E-2,-1.090724468E-1
1.397202989E0,-7.851600647E-3,-8.198685944E-2,-7.439506054E-2
1.416217937E0,-1.668167114E-2,-1.055402309E-1,-9.271514416E-2
1.435232832E0,-4.186820984E-2,-8.781717718E-2,-1.692504883E-1
1.454247728E0,-3.881454468E-3,-7.942123711E-2,-1.944258213E-1
1.473262624E0,1.340198517E-2,-5.848926306E-2,-1.453647614E-1
1.492277572E0,-3.565025330E-2,-4.984445870E-2,-8.580422401E-2
1.511292468E0,-5.480289459E-2,-4.490852356E-2,-7.894420624E-2
1.530307364E0,-3.966045380E-2,-5.160804093E-2,-1.004441977E-1
1.549322312E0,-1.258850098E-4,-6.495767832E-2,-1.149204969E-1
1.568337207E0,2.279281616E-3,-7.045659423E-2,-1.005383730E-1
1.587352103E0,-1.549148560E-2,-1.017021835E-1,-1.047011614E-1
1.606366999E0,-2.509021759E-2,-8.574809134E-2,-1.559331417E-1
1.625381947E0,-9.577751160E-3,-4.649314284E-2,-1.542284489E-1
1.644396843E0,-1.503467560E-2,-2.091845870E-2,-1.025650501E-1
1.663411739E0,-4.062747955E-2,-3.965619206E-2,-7.209098339E-2
1.682426635E0,-4.374980927E-2,-6.169405580E-2,-6.590843201E-2
1.701441582E0,-3.319549561E-2,-6.481674314E-2,-6.632471085E-2
1.720456478E0,-1.023960114E-2,-6.171192229E-2,-3.551876545E-2
1.739471374E0,-1.591014862E-2,-2.602308989E-2,-2.722370625E-2
1.758486270E0,-3.404617310E-3,1.652574539E-2,-2.567160130E-2
1.777501166E0,9.188652039E-3,5.257374048E-2,-4.744195938E-2
1.796516114E0,-1.256942749E-2,6.827741861E-3,-6.133973598E-2
1.815531010E0,-5.101299286E-2,-3.313595057E-2,-2.427792549E-2
1.834545905E0,-5.543327332E-2,-3.831908107E-2,-4.364252090E-2
1.853560801E0,-5.178451538E-3,-4.610636830E-2,-8.632969856E-2
1.872575749E0,3.393077850E-2,-8.287055790E-2,-8.818435669E-2
1.891590645E0,3.128051758E-4,-9.532113373E-2,-6.333458424E-2
1.910605541E0,-4.276371002E-2,-7.899536192E-2,-6.172382832E-2
1.929620437E0,-2.538776398E-2,-6.100745499E-2,-7.653880119E-2
1.948635332E0,2.292633057E-3,-7.652701437E-2,-7.772421837E-2
1.967650280E0,-4.213333130E-3,-5.764946342E-2,-8.282101154E-2
1.986665176E0,-2.407932281E-2,-2.142636478E-2,-1.253943443E-1
2.005680072E0,-5.633354187E-3,9.603351355E-3,-1.364285946E-1
2.024694968E0,3.684997559E-3,1.916080713E-3,-1.056196690E-1
2.043709916E0,-1.452541351E-2,-6.655901670E-3,-9.883654118E-2
2.062724812E0,-2.762413025E-2,8.282661438E-3,-1.478353739E-1
2.081739707E0,-8.068084717E-3,2.799412608E-2,-1.997041702E-1
2.100754603E0,1.345920563E-2,2.224464715E-2,-2.231178284E-1
2.119769499E0,2.069759369E-2,-8.372023702E-3,-1.783776283E-1
2.138784447E0,-3.865909576E-2,-3.146444261E-2,-8.384680748E-2
2.157799343E0,-4.963302612E-2,-2.656567097E-2,-2.687025070E-2
2.176814239E0,1.396179199E-2,2.962023020E-2,-1.788890362E-2
2.195829135E0,4.928779602E-2,9.246174991E-2,-1.065255404E-1
2.214844030E0,2.152156830E-2,1.708468050E-1,-1.898146868E-1
2.233858978E0,-2.799987793E-2,1.725288630E-1,-2.457985878E-1
2.252873874E0,-2.456951141E-2,9.188807011E-2,-2.273417711E-1
2.271888770E0,-2.237129211E-2,3.004397452E-2,-1.654322147E-1
2.290903666E0,3.928184509E-3,4.748046398E-2,-1.296470165E-1
2.309918562E0,7.454872131E-3,1.124868393E-1,-1.267576218E-1
2.328933457E0,-4.132366180E-2,1.387236565E-1,-1.019146442E-1
2.347948405E0,-5.556011200E-2,6.233394146E-2,-6.265652180E-2
2.366963301E0,-5.267047882E-2,-1.811546236E-1,-1.708114147E-2
2.385978197E0,1.741218567E-2,-4.000039101E-1,3.971135616E-2
2.404993093E0,-5.433082581E-3,-4.890980422E-1,5.694484711E-2
2.424007989E0,-2.767562866E-2,-4.762656987E-1,2.962601185E-2
2.443022885E0,-7.110977173E-2,-4.374499023E-1,6.278133392E-2
2.462037832E0,-9.798812866E-2,-3.632103503E-1,1.011453867E-1
2.481052728E0,-2.291488647E-2,-2.068995833E-1,8.141434193E-2
2.500067624E0,-2.038955688E-3,-2.874371409E-2,1.336908340E-2
2.519082520E0,-7.869815826E-2,-2.638474107E-2,-3.360939026E-2
2.538097416E0,-5.603122711E-2,-4.957547784E-2,-1.033405066E-1
2.557112312E0,-2.034473419E-2,-1.593672633E-1,-6.357681751E-2
2.576127207E0,-3.776645660E-2,-1.591502726E-1,-1.517188549E-2
2.595142155E0,-4.450321198E-2,-1.115989834E-1,4.415953159E-2
2.614157051E0,-8.105182648E-2,-1.440500468E-1,4.808843136E-2
2.633171947E0,-6.222915649E-2,-2.083951980E-1,1.530146599E-2
2.652186843E0,-7.794380188E-3,-2.450451702E-1,-4.903769493E-2
2.671201739E0,4.651069641E-3,-2.431869954E-1,-9.096431732E-2
2.690216635E0,-2.905559540E-2,-1.136806160E-1,-1.450980902E-1
2.709231530E0,2.893447876E-3,7.175612450E-2,-2.103693485E-1
2.728246478E0,3.264427185E-2,2.495174110E-1,-2.354421616E-1
2.747261374E0,-1.532173157E-2,3.057584763E-1,-1.962448359E-1
2.766276270E0,-6.346416473E-2,2.404909134E-1,-6.387233734E-2
2.785291166E0,-2.578735352E-2,1.616142392E-1,-5.409717560E-3
2.804306062E0,6.434822083E-2,7.321614027E-2,-2.207398415E-3
2.823320957E0,6.879615784E-2,-1.910805702E-3,4.119884968E-2
2.842335853E0,-7.810115814E-2,-5.037546158E-3,3.564214706E-2
2.861350801E0,-1.475677490E-1,4.879683256E-3,-2.192974091E-2
2.880365697E0,-8.916473389E-2,4.377406836E-2,-8.315384388E-2
2.899380593E0,-9.326934814E-3,1.649184227E-1,-1.751862764E-1
2.918395489E0,1.264190674E-2,2.624701560E-1,-2.218482494E-1
2.937410385E0,5.582809448E-3,2.567396164E-1,-2.721570730E-1
2.956425280E0,-1.614856720E-2,1.695441455E-1,-2.195131779E-1
2.975440176E0,-6.916332245E-2,4.886382818E-2,-1.072366238E-1
2.994455072E0,-2.507495880E-2,-4.722580314E-2,-2.591693401E-2
3.013469968E0,1.888561249E-2,-1.162197292E-1,-3.104114532E-2
3.032484916E0,1.976299286E-2,-1.581505388E-1,-6.048798561E-2
3.051499812E0,-1.839256287E-2,-1.622958481E-1,-6.008803844E-2
3.070514707E0,-3.651046753E-2,-1.451641619E-1,-9.748899937E-2
3.089529603E0,-2.633571625E-2,-1.036434621E-1,-1.174886227E-1
3.108544499E0,-1.882648468E-2,-5.352002382E-2,-9.636688232E-2
3.127559395E0,-8.900642395E-3,-3.754237294E-2,-8.040702343E-2
3.146574291E0,-3.808784485E-2,-2.926993370E-2,-5.920350552E-2
3.165589187E0,-4.778385162E-2,-7.872040570E-2,-2.736127377E-2
3.184604135E0,-1.529502869E-2,-1.173521727E-1,-2.190840244E-2
3.203619030E0,-9.308815002E-3,-1.082002223E-1,-3.154277802E-2
3.222633926E0,-4.978752136E-2,-7.598808408E-2,-4.427850246E-2
3.241648822E0,-4.666614532E-2,-6.384773552E-2,-8.363163471E-2
3.260663718E0,-1.579856873E-2,-9.181457758E-2,-9.979891777E-2
3.279678614E0,-4.250526428E-3,-9.323845804E-2,-1.255651712E-1
3.298693510E0,-1.729393005E-2,-7.067802548E-2,-1.187509298E-1
3.317708405E0,-8.288383484E-3,-7.048971951E-2,-7.814848423E-2
3.336723301E0,-9.150505066E-3,-8.185479045E-2,-9.739482403E-2
3.355738197E0,-2.599525452E-2,-3.867019713E-2,-9.772360325E-2
3.374753093E0,-4.630088806E-2,-4.099696875E-3,-9.313118458E-2
3.393767989E0,-4.201030731E-2,2.104163170E-2,-1.019998789E-1
3.412782885E0,-2.156925201E-2,4.051586986E-2,-1.172611713E-1
3.431797832E0,-9.952545166E-3,2.978798747E-2,-1.479121447E-1
3.450812728E0,-9.692192078E-3,-1.269310713E-3,-1.506974697E-1
3.469827624E0,-1.643848419E-2,4.711270332E-3,-1.247674227E-1
3.488842520E0,-3.900718689E-2,4.083096981E-3,-1.147674322E-1
3.507857416E0,-1.601791382E-2,-3.411635756E-2,-1.099476814E-1
3.526872312E0,-9.909629822E-3,-6.698191166E-2,-1.240308285E-1
3.545887207E0,-1.859474182E-2,-4.724407196E-2,-1.434557438E-1
3.564902103E0,-1.723670959E-2,-2.419537306E-2,-1.472940445E-1
3.583916999E0,-4.623603821E-2,-5.448682606E-2,-1.328763962E-1
3.602931895E0,-3.470325470E-2,-6.686700881E-2,-1.064097881E-1
3.621946791E0,-1.434803009E-2,-6.297080219E-2,-8.043682575E-2
3.640961687E0,-1.992607117E-2,-4.214063287E-2,-6.863665581E-2
3.659976582E0,-1.967144012E-2,-4.627296329E-2,-7.603609562E-2
3.678991478E0,-2.540874481E-2,-4.388329387E-2,-8.935379982E-2
3.698006374E0,-1.541709900E-2,-2.188268304E-2,-7.498264313E-2
3.717021270E0,-2.729606628E-2,-2.691397071E-2,-7.776463032E-2
3.736036218E0,-1.948451996E-2,-3.922677040E-2,-9.250617027E-2
3.755051114E0,-7.134437561E-3,-3.362396359E-2,-1.058433056E-1
3.774066010E0,-2.964687347E-2,-2.818867564E-2,-7.307767868E-2
3.793080905E0,-3.083801270E-2,-4.197607934E-2,-6.174194813E-2
3.812095801E0,1.089000702E-2,-6.703491509E-2,-7.708668709E-2
3.831110697E0,2.477645874E-3,-6.064200401E-2,-5.870151520E-2
3.850125593E0,-4.695320129E-2,1.126870513E-2,-4.763638973E-2
3.869140489E0,-9.225845337E-3,2.534928918E-2,-6.569838524E-2
3.888155385E0,-6.909370422E-3,7.877171040E-3,-9.370434284E-2
3.907170280E0,-4.558372498E-2,2.680957317E-3,-1.017597914E-1
3.926185176E0,-2.238082886E-2,1.906138659E-2,-9.577524662E-2
3.945200072E0,5.197525024E-3,5.773872137E-3,-9.499979019E-2
3.964214968E0,-1.326847076E-2,-7.145941257E-3,-8.650338650E-2
3.983229864E0,-4.221916199E-3,-2.348184586E-2,-9.066617489E-2
4.002244760E0,6.881713867E-3,-2.427294850E-2,-1.394748688E-1
4.021259655E0,-1.650810242E-3,1.697346568E-2,-1.754785776E-1
4.040274551E0,1.417446136E-2,6.271424890E-2,-1.797658205E-1
4.059289447E0,8.887290955E-3,4.905074835E-2,-1.517645121E-1
4.078304343E0,-5.070495605E-2,3.787076473E-2,-1.752339602E-1
4.097319239E0,-4.507923126E-2,3.680402040E-2,-1.865820885E-1
4.116334135E0,2.355194092E-2,-4.386110604E-2,-2.058719397E-1
4.135349030E0,6.650543213E-2,-8.286496997E-2,-2.092921734E-1
4.154363926E0,-2.469062805E-3,-7.721953094E-2,-1.806081533E-1
4.173378822E0,-5.649375916E-2,-1.093301326E-1,-1.649266481E-1
4.192393718E0,-3.125572205E-2,-1.536929905E-1,-1.602556705E-1
4.211408614E0,1.043510437E-2,-1.934416294E-1,-1.452715397E-1
4.230423510E0,2.752685547E-2,-2.027508467E-1,-1.169519424E-1
4.249438405E0,2.169418335E-2,-1.684969515E-1,-7.758748531E-2
4.268453301E0,-1.961326599E-2,-1.343470067E-1,-1.603782177E-2
4.287468197E0,-5.111217499E-2,-1.345863491E-1,-2.535092831E-2
4.306483093E0,-5.361175537E-2,-1.438922286E-1,-6.962823868E-2
4.325497989E0,-1.490497589E-2,-1.696883589E-1,-8.827745914E-2
4.344512885E0,-5.334854126E-3,-1.670847535E-1,-3.364539146E-2
4.363527780E0,-6.602382660E-2,-1.448506415E-1,-1.368474960E-2
4.382542676E0,-9.358596802E-2,-7.205596566E-2,1.374709606E-2
4.401557572E0,-6.209087372E-2,-7.477837801E-2,-3.383398056E-3
4.420572468E0,-1.197433472E-2,-4.715347290E-2,-3.482258320E-2
4.439587416E0,2.262115479E-3,-1.354134083E-2,-3.723621368E-2
4.458602260E0,-3.761005402E-2,5.128568411E-2,-2.649259567E-2
4.477617207E0,-8.558464050E-2,3.973227739E-2,-2.450108528E-3
4.496632051E0,-5.301380157E-2,5.340668559E-2,-1.903510094E-2
4.515646947E0,-3.493022919E-2,1.842880249E-2,-6.162631512E-2
4.534661843E0,-1.594352722E-2,-1.634022593E-2,-7.374095917E-2
4.553676739E0,-6.856918335E-3,-1.671662927E-2,-9.785199165E-2
4.572691635E0,-4.005718231E-2,-2.800601721E-2,-8.985781670E-2
4.591706530E0,-5.593013763E-2,-1.060478985E-1,-5.502533913E-2
4.610721426E0,-6.459236145E-3,-6.152969599E-2,-9.472858906E-2
4.629736322E0,2.218818665E-2,-3.854413331E-2,-9.933888912E-2
4.648751218E0,-4.624366760E-2,-4.600740969E-2,-2.506506443E-2
4.667766114E0,-4.573154449E-2,-4.597690701E-2,-2.112400532E-2
4.686781010E0,-1.604461670E-2,-4.057174921E-2,-6.658208370E-2
4.705795905E0,-5.925178528E-3,-4.335382581E-2,-1.052606106E-1
4.724810801E0,-1.485824585E-2,-2.933278680E-2,-8.568286896E-2
4.743825697E0,-3.535079956E-2,-5.290323496E-2,-5.657470226E-2
4.762840593E0,-3.852653503E-2,-6.740930676E-2,-5.473816395E-2
4.781855489E0,-1.252365112E-2,-5.787168443E-2,-6.641364098E-2
4.800870385E0,9.469985962E-4,-1.737293601E-2,-9.085643291E-2
4.819885280E0,-1.850414276E-2,-9.752422571E-3,-1.171205044E-1
4.838900176E0,-6.096744537E-2,-6.543874741E-2,-1.293282509E-1
4.857915072E0,-5.319213867E-2,-1.152332276E-1,-1.158858538E-1
4.876929968E0,9.063720703E-3,-1.281738132E-1,-1.091982126E-1
4.895944864E0,4.164505005E-2,-9.085322917E-2,-7.680499554E-2
4.914959760E0,5.866050720E-3,-2.970978618E-2,-7.010006905E-2
4.933974655E0,-4.380321503E-2,-7.499903440E-3,-1.000554562E-1
4.952989551E0,-4.967880249E-2,-1.705467701E-3,-1.176966429E-1
4.972004447E0,-3.401565552E-2,-7.578879595E-3,-1.225968599E-1
4.991019343E0,-8.621215820E-3,-3.405246139E-2,-1.165702343E-1
5.010034239E0,-9.350776672E-3,-8.548173308E-2,-1.171039343E-1
5.029049135E0,-2.690315247E-3,-9.729018807E-2,-1.432287693E-1
5.048064030E0,-1.289463043E-2,-6.601297855E-2,-1.404236555E-1
5.067078926E0,-1.819515228E-2,-3.332564235E-2,-1.253978014E-1
5.086093822E0,-3.111457825E-2,-3.197598457E-2,-9.300506115E-2
5.105108718E0,-1.565361023E-2,-3.601759672E-2,-1.011221409E-1
5.124123614E0,1.801490784E-3,-3.264871240E-2,-1.382517815E-1
5.143138510E0,-1.227188110E-2,-2.026158571E-2,-1.389194727E-1
5.162153405E0,-2.071666718E-2,-3.983289003E-3,-1.274557114E-1
5.181168301E0,-1.428222656E-2,-2.207797766E-2,-8.978664875E-2
5.200183197E0,-1.206016541E-2,-4.702143371E-2,-8.494031429E-2
5.219198093E0,-1.909923553E-2,-7.932823896E-2,-8.725595474E-2
5.238212989E0,-1.261520386E-2,-5.918715894E-2,-1.085678339E-1
5.257227885E0,-2.383041382E-2,-1.920467615E-2,-1.429003477E-1
5.276242780E0,-8.951187134E-3,-1.784804463E-2,-1.492185593E-1
5.295257676E0,-1.857471466E-2,-4.607263207E-2,-1.289238930E-1
5.314272572E0,-1.080608368E-2,-6.919807196E-2,-1.056041718E-1
5.333287468E0,9.576797485E-3,-8.381530643E-2,-1.226545572E-1
5.352302364E0,1.166439056E-2,-9.904538095E-2,-1.738765240E-1
5.371317260E0,-7.266998291E-3,-1.233900934E-1,-1.986836195E-1
5.390332155E0,-6.340026855E-3,-1.016039103E-1,-2.156715393E-1
5.409347051E0,9.886741638E-3,-4.984194040E-2,-2.076181173E-1
5.428361947E0,-3.121089935E-2,7.376313210E-3,-1.696809530E-1
5.447376843E0,-7.286834717E-2,-1.762184501E-2,-1.307020187E-1
5.466391739E0,-5.359745026E-2,-3.258600831E-2,-1.383739710E-1
5.485406635E0,2.905845642E-3,-7.061329484E-2,-1.269861460E-1
5.504421530E0,1.967048645E-2,-7.816782594E-2,-1.038631201E-1
5.523436426E0,5.014419556E-3,-3.087538481E-2,-7.317042351E-2
5.542451322E0,-2.719116211E-2,-1.724275947E-2,-7.246994972E-2
5.561466218E0,-5.265045166E-2,1.413071156E-2,-5.628716946E-2
5.580481062E0,-5.403232574E-2,7.672744989E-2,-6.457078457E-2
5.599496010E0,-5.676269531E-3,1.186046302E-1,-7.328045368E-2
5.618510853E0,-1.780509949E-3,1.198158860E-1,-9.328830242E-2
5.637525749E0,-3.628635406E-2,5.769738555E-2,-2.963948250E-2
5.656540645E0,7.943153381E-3,-4.049584270E-2,6.944775581E-2
5.675555541E0,3.102397919E-2,-9.389403462E-2,1.037975550E-1
5.694570437E0,2.350711823E-2,-1.698045433E-1,1.524448395E-1
5.713585332E0,-2.673530579E-2,-2.347564995E-1,1.719906330E-1
5.732600228E0,-6.923675537E-2,-2.656410635E-1,1.497251987E-1
5.751615124E0,-2.073955536E-2,-2.196080685E-1,1.296170950E-1
5.770630020E0,1.048946381E-2,-7.577449083E-2,1.020840406E-1
5.789644916E0,-1.009006500E-1,4.966682196E-2,6.271731853E-2
5.808659812E0,-1.484155655E-1,1.459763944E-1,2.745366096E-2
5.827674707E0,-2.994060516E-2,1.620194316E-1,-1.235604286E-2
5.846689603E0,5.958938599E-2,1.158172488E-1,-3.257751465E-3
5.865704499E0,-2.791500092E-2,1.536393464E-1,1.758253574E-2
5.884719395E0,-7.964038849E-2,2.464317679E-1,-7.133412361E-2
5.903734291E0,-8.852291107E-2,2.386310101E-1,-1.902271509E-1
5.922749187E0,-8.923721313E-2,1.917708814E-1,-2.470814586E-1
5.941764082E0,-7.673168182E-2,2.065437436E-1,-2.996847034E-1
5.960778978E0,-3.537082672E-2,1.755750477E-1,-3.871203661E-1
5.979793874E0,-3.166198730E-3,6.367066503E-2,-3.603971004E-1
5.998808770E0,-2.953147888E-2,-1.137463301E-1,-2.867956161E-1
6.017823666E0,9.284019470E-3,-2.035660446E-1,-1.996671557E-1
6.036838562E0,3.844547272E-2,-2.788968086E-1,-2.026469111E-1
6.055853457E0,1.741790771E-2,-3.579577506E-1,-2.013914585E-1
6.074868301E0,-4.643726349E-2,-4.457072616E-1,-1.748346090E-1
6.093883197E0,-4.992675781E-2,-4.218477011E-1,-1.379710436E-1
6.112898093E0,-2.039146423E-2,-3.331514597E-1,-1.068884730E-1
6.131912989E0,4.172325134E-3,-2.312068343E-1,-4.569649696E-2
6.150927885E0,1.777744293E-2,-1.565501094E-1,-2.133095264E-2
6.169942780E0,-1.744937897E-2,-1.173811704E-1,-3.668797016E-2
6.188957676E0,-8.264255524E-2,-1.302228868E-1,-1.192188263E-2
6.207972572E0,-1.459312439E-2,-6.408855319E-2,1.489198208E-2
6.226987468E0,4.346084595E-2,-3.301435709E-2,2.723473310E-2
6.246002364E0,3.586196899E-2,7.084757090E-3,-4.285794497E-2
6.265017260E0,1.226234436E-2,3.287407756E-2,-3.738522530E-2
6.284032155E0,4.914283752E-3,3.299254179E-2,1.839083433E-2
6.303047051E0,9.271621704E-3,5.777218938E-2,3.018540144E-2
6.322061947E0,8.310031891E-2,6.187024713E-2,2.135306597E-2
6.341076843E0,7.092571259E-2,6.342038512E-2,-4.545545578E-2
6.360091739E0,-3.840637207E-2,7.643511891E-2,-1.179689169E-1
6.379106635E0,-1.230993271E-1,1.767396927E-2,-1.867262125E-1
6.398121530E0,-1.623373032E-1,-1.569558531E-1,-1.103122234E-1
6.417136426E0,-1.116724014E-1,-3.108969629E-1,4.543024302E-2
6.436151322E0,-1.771736145E-2,-3.811981082E-1,1.330928802E-1
6.455166218E0,2.461433411E-3,-4.055321515E-1,9.480392933E-2
6.474181114E0,1.749992371E-3,-2.581867874E-1,-3.497564793E-2
6.493196010E0,-2.917766571E-2,-1.396449208E-1,-1.237193346E-1
6.512210905E0,-1.182270050E-2,-7.169048488E-2,-1.028885841E-1
6.531225801E0,5.179119110E-2,-2.871713042E-2,-8.724647760E-2
6.550240697E0,2.763080597E-2,-1.313987374E-2,-8.811926842E-2
6.569255593E0,-2.811145782E-2,6.443089247E-2,-1.225182414E-1
6.588270489E0,-1.220588684E-1,6.933781505E-2,-1.424403191E-1
6.607285332E0,-1.138477325E-1,-3.658500314E-2,-1.088538766E-1
6.626300280E0,-8.109092712E-2,-8.173094690E-2,-1.108273864E-1
6.645315124E0,-1.254005432E-1,-1.427177787E-1,-1.261247993E-1
6.664330020E0,-1.272468567E-1,-1.868887544E-1,-1.194355488E-1
6.683344916E0,-3.945636749E-2,-1.605666578E-1,-9.575784206E-2
6.702359812E0,1.288032532E-2,-1.025204360E-1,-1.273992658E-1
6.721374707E0,4.317951202E-2,-2.067047358E-2,-1.533353329E-1
6.740389603E0,-2.450942993E-3,-2.639709413E-2,-1.241823435E-1
6.759404499E0,-4.585266113E-3,-2.507559955E-2,-1.155507565E-1
6.778419395E0,1.084136963E-2,-5.869154632E-2,-6.349021196E-2
6.797434291E0,2.680778503E-3,5.356699228E-3,-5.664896965E-2
6.816449187E0,-6.076812744E-3,3.575561941E-2,-9.456145763E-2
6.835464082E0,-1.712894440E-2,7.234074175E-2,-1.214091182E-1
6.854478978E0,-9.573936462E-3,6.899121404E-2,-1.761148572E-1
6.873493874E0,-2.839565277E-2,-4.722267389E-3,-2.212325633E-1
6.892508770E0,-5.179214478E-2,-7.772244513E-2,-1.900528371E-1
6.911523666E0,-8.216381073E-2,-1.225103587E-1,-1.467799544E-1
6.930538562E0,-1.054811478E-1,-1.146439984E-1,-1.500241756E-1
6.949553457E0,-4.332351685E-2,-3.512932360E-2,-2.036257982E-1
6.968568353E0,-1.214790344E-2,3.900659084E-2,-2.683966756E-1
6.987583249E0,-6.396865845E-2,8.473795652E-2,-2.591183484E-1
7.006598145E0,-6.401824951E-2,7.348670065E-2,-2.697286606E-1
7.025613041E0,-4.635334015E-2,-4.918426275E-4,-2.322947681E-1
7.044627937E0,-4.791927338E-2,-1.032447070E-1,-1.800234914E-1
7.063642832E0,-2.432155609E-2,-1.680471897E-1,-1.222833991E-1
7.082659499E0,3.546237946E-2,-1.479082257E-1,-1.205790639E-1
7.101672624E0,2.468109131E-2,-7.474440336E-2,-1.915243864E-1
7.120687520E0,-4.855728149E-2,-3.936588764E-3,-2.270556390E-1
7.139702416E0,-1.437482834E-1,-1.551929116E-2,-1.896293163E-1
7.158717312E0,-1.462192535E-1,-8.846031129E-2,-1.414875984E-1
7.177732207E0,1.074123383E-2,-1.924736798E-1,-5.085724592E-2
7.196747103E0,1.654462814E-1,-2.855634093E-1,4.050320387E-2
7.215761999E0,1.807680130E-1,-3.152889013E-1,4.968327284E-2
7.234776895E0,8.744621277E-2,-3.144278526E-1,-1.876378059E-2
7.253796973E0,-3.924560547E-2,-2.011125088E-1,-6.835865974E-2
7.272811869E0,-1.231460571E-1,-2.313391864E-2,-7.881516218E-2
7.291826764E0,-1.370544434E-1,6.072117388E-2,-4.768604040E-2
7.310841660E0,-1.021823883E-1,-1.699125767E-2,-4.019379616E-3
7.329856556E0,-2.616119385E-2,-1.348462105E-1,2.499574423E-2
7.348871452E0,3.367424011E-2,-1.717532128E-1,7.553994656E-3
7.367886348E0,3.506278992E-2,-5.194064975E-2,-5.247759819E-2
7.386901244E0,-8.828163147E-3,9.074845910E-2,-1.327711344E-1
7.405916139E0,-7.503128052E-2,1.679860353E-1,-1.505999565E-1
7.424931035E0,-8.616638184E-2,2.094907761E-1,-1.605073810E-1
7.443945931E0,-7.984924316E-2,1.794444323E-1,-1.448010802E-1
7.462960827E0,-5.237388611E-2,4.521515965E-2,-9.186643362E-2
7.481975723E0,-2.385997772E-2,-9.117469192E-2,-5.587053299E-2
7.500990619E0,3.490447998E-4,-8.752730489E-2,-8.158397675E-2
7.520005514E0,1.458072662E-2,1.647818089E-2,-1.687459946E-1
7.539020410E0,-1.375484467E-2,6.101489067E-2,-2.559377551E-1
7.558035306E0,-5.276107788E-2,3.202447295E-2,-2.556932569E-1
7.577050202E0,-6.844902039E-2,-7.275187969E-2,-2.013836503E-1
7.596065098E0,-5.325126648E-2,-1.063640416E-1,-1.654736400E-1
7.615079994E0,-2.897167206E-2,-8.626416326E-2,-1.734629869E-1
7.634094889E0,-3.402042389E-2,-5.544410646E-2,-2.346677184E-1
7.653109785E0,-7.210254669E-2,-9.457421303E-2,-2.723730803E-1
7.672124681E0,-1.081361771E-1,-2.026549727E-1,-2.492926121E-1
7.691139577E0,-3.003406525E-2,-2.651734650E-1,-2.026816607E-1
7.710154473E0,7.870197296E-2,-2.119538635E-1,-2.016212940E-1
7.729169369E0,5.668830872E-2,-1.105464250E-1,-2.148507833E-1
7.748184264E0,-2.208614349E-2,-8.218443394E-2,-1.552156210E-1
7.767199160E0,5.245208740E-5,-9.234523773E-2,-3.101456165E-2
7.786214056E0,1.261911392E-1,-1.404238194E-1,7.145833969E-2
7.805229004E0,1.605958939E-1,-1.094206721E-1,5.277395248E-2
7.824243900E0,8.315086365E-3,-2.705878019E-2,-5.857443810E-2
7.843258796E0,-1.400947571E-1,-1.419043541E-2,-1.653435230E-1
7.862273692E0,-1.473484039E-1,1.281723380E-2,-1.738020182E-1
7.881288587E0,-8.298015594E-2,6.338751316E-2,-1.293119192E-1
7.900303483E0,-3.933906555E-2,8.324617147E-2,-9.241831303E-2
7.919318379E0,-6.148719788E-2,1.376098394E-2,-6.227791309E-2
7.938333275E0,-5.945587158E-2,-5.644544959E-2,-1.981997490E-2
7.957348171E0,2.881240845E-2,-3.808665276E-2,3.004455566E-2
7.976363067E0,7.655906677E-2,1.924461126E-2,4.574453831E-2
7.995377962E0,5.211067200E-2,6.197428703E-2,6.205558777E-2
8.014392858E0,-3.432083130E-2,3.048270941E-3,3.091180325E-2
8.033407754E0,-9.486961365E-2,-7.972103357E-2,4.740357399E-3
8.052422650E0,-7.804775238E-2,-1.469453871E-1,-3.677403927E-2
8.071437546E0,-4.334545135E-2,-1.756233871E-1,-6.585991383E-2
8.090452442E0,-3.024196625E-2,-1.271091551E-1,-8.564507961E-2
8.109467337E0,-3.342151642E-2,-5.545583367E-2,-8.855116367E-2
8.128482233E0,-9.709358215E-3,-3.919467330E-2,-6.257927418E-2
8.147497129E0,-3.862380981E-3,-9.176672995E-2,-2.678692341E-2
8.166512025E0,-5.296707153E-3,-1.383841634E-1,-7.623076439E-3
8.185526921E0,-4.785156250E-2,-1.470348090E-1,-2.520143986E-2
8.204541817E0,-5.341529846E-2,-1.247016191E-1,-4.048705101E-2
8.223556712E0,-3.894329071E-2,-1.240411103E-1,-5.081057549E-3
8.242571608E0,-4.183769226E-2,-1.283155233E-1,8.311986923E-3
8.261586504E0,-2.493000031E-2,-1.171245426E-1,2.004492283E-2
8.280601400E0,-1.091289520E-2,-7.107985020E-2,1.722812653E-2
8.299616296E0,-3.135585785E-2,-5.671533942E-2,1.614189148E-2
8.318631192E0,-3.763675690E-2,-5.633395910E-2,1.652061939E-2
8.337646139E0,-4.828929901E-2,-3.923204541E-2,4.345178604E-3
8.356661035E0,-5.041408539E-2,-5.759343505E-2,3.488683701E-2
8.375675931E0,-5.064010620E-2,-6.781814992E-2,4.180181026E-2
8.394690827E0,-5.602836609E-2,-4.961192608E-2,2.927649021E-2
8.413705723E0,-4.786396027E-2,-3.677859902E-2,2.634048462E-2
8.432720619E0,3.960609436E-3,2.049028873E-3,3.301775455E-2
8.451735514E0,-3.406047821E-2,1.551032066E-3,2.932155132E-2
8.470750410E0,-6.464290619E-2,-4.614758492E-2,1.792740822E-2
8.489765306E0,-1.958179474E-2,-6.667794287E-2,-1.191031933E-2
8.508780202E0,3.913974762E-2,3.170770407E-2,-5.337989330E-2
8.527795098E0,-3.964042664E-2,1.452253461E-1,-3.352057934E-2
8.546809994E0,-1.174678802E-1,1.932784915E-1,-4.377555847E-2
8.565824889E0,-6.436252594E-2,1.593743563E-1,-8.493852615E-2
8.584839785E0,-2.214145660E-2,1.552860439E-1,-1.213027239E-1
8.603854681E0,9.777069092E-3,1.901639700E-1,-1.076643467E-1
8.622869577E0,2.682304382E-2,1.346278191E-1,-9.362852573E-2
8.641884473E0,-1.115226746E-2,2.674135566E-2,-1.090166569E-1
8.660899421E0,-3.852176666E-2,-1.296863407E-1,-1.210674047E-1
8.679914264E0,-5.085372925E-2,-3.149752915E-1,-1.118426323E-1
8.698929212E0,-6.773948669E-3,-3.659342825E-1,-1.348748207E-1
8.717944108E0,1.832962036E-3,-3.302918673E-1,-1.533148289E-1
8.736959004E0,-2.583026886E-2,-2.788712382E-1,-1.540728807E-1
8.755973900E0,-1.531410217E-2,-2.722001970E-1,-1.375511885E-1
8.774988796E0,2.030658722E-2,-2.561720908E-1,-1.075170040E-1
8.794003692E0,1.928329468E-2,-1.850211918E-1,-9.966766834E-2
8.813018587E0,-2.527427673E-2,-3.944674134E-2,-9.132039547E-2
8.832033483E0,-3.948402405E-2,6.009876728E-2,-7.954311371E-2
8.851048379E0,1.182842255E-2,6.536817551E-2,-7.465171814E-2
8.870063275E0,6.783485413E-3,5.507814884E-2,-1.085939407E-1
8.889078171E0,3.311729431E-2,8.580222726E-2,-1.296432018E-1
8.908093067E0,2.514839172E-2,8.915525675E-2,-1.225334406E-1
8.927107962E0,-2.720832825E-2,9.238803387E-2,-8.605062962E-2
8.946122858E0,-8.779811859E-2,1.201444566E-1,-5.852496624E-2
8.965137754E0,-8.791065216E-2,1.104411483E-1,-9.577560425E-2
8.984152650E0,5.373954773E-3,6.961140037E-2,-1.249620914E-1
9.003167546E0,4.248619080E-2,7.181257010E-3,-8.500039577E-2
9.022182442E0,-4.437923431E-2,-3.025713563E-2,-5.517244339E-2
9.041197389E0,-6.283378601E-2,-2.281904221E-2,-9.233474731E-2
9.060212285E0,-3.016185760E-2,-3.949983418E-2,-1.000689268E-1
9.079227181E0,2.524375916E-3,-5.973681808E-2,-9.336102009E-2
9.098242077E0,-1.945400238E-2,-6.806883216E-2,-8.024489880E-2
9.117256973E0,-6.690597534E-2,-9.707646072E-2,-7.856106758E-2
9.136271869E0,-4.001045227E-2,-1.289626360E-1,-6.952631474E-2
9.155286764E0,-7.095336914E-3,-1.192061454E-1,-6.175017357E-2
9.174301660E0,-8.878707886E-4,-6.593003869E-2,-6.774497032E-2
9.193316556E0,-1.797866821E-2,-2.495843172E-2,-7.945322990E-2
9.212331452E0,-5.626678467E-3,-4.560530186E-2,-8.818125725E-2
9.231346348E0,2.904891968E-3,-8.887003362E-2,-6.270372868E-2
9.250361244E0,-7.152557373E-3,-8.001253009E-2,-7.106661797E-2
9.269376139E0,-3.277301788E-2,-7.085341215E-2,-6.670892239E-2
9.288391087E0,1.235961914E-3,-4.857268929E-2,-9.838509560E-2
9.307405983E0,3.240585327E-3,-6.888219714E-2,-1.348006725E-1
9.326420879E0,5.368232727E-3,-9.774747491E-2,-1.144602299E-1
9.345435775E0,-1.430034637E-2,-8.367089927E-2,-1.164580584E-1
9.364450671E0,-2.450656891E-2,-9.071245790E-2,-1.131768227E-1
9.383465567E0,-4.295253754E-2,-8.452476561E-2,-1.166485548E-1
9.402480462E0,-1.970291138E-2,-5.102631450E-2,-1.161832809E-1
9.421495358E0,-1.800251007E-2,-6.689077616E-2,-1.259409189E-1
9.440510254E0,-4.284191132E-2,-7.534256577E-2,-1.272981167E-1
9.459525150E0,-4.542636871E-2,-8.709609509E-2,-1.120877266E-1
9.478540046E0,-2.079868317E-2,-7.798354328E-2,-9.273278713E-2
9.497554942E0,-2.531051636E-3,-6.564638019E-2,-9.940171242E-2
9.516569837E0,-1.091480255E-2,-5.928128958E-2,-9.832894802E-2
9.535584785E0,-4.217338562E-2,-6.471028924E-2,-7.777655125E-2
9.554599681E0,-1.654338837E-2,-7.173641026E-2,-7.312953472E-2
9.573614577E0,-1.550674438E-3,-6.780835986E-2,-9.342956543E-2
9.592629473E0,8.316040039E-4,-5.528950691E-2,-1.054060459E-1
9.611644369E0,-2.668952942E-2,-4.612612724E-2,-1.055068970E-1
9.630659264E0,-5.451297760E-2,-5.063496530E-2,-6.772112846E-2
9.649674160E0,-3.929710388E-2,-2.304124832E-2,-6.894505024E-2
9.668689056E0,-1.595592499E-2,-8.005529642E-3,-7.300484180E-2
9.687703952E0,-1.743984222E-2,-1.496356726E-2,-8.118999004E-2
9.706718848E0,-3.332614899E-2,-2.091792226E-2,-1.046491861E-1
9.725733796E0,-5.849552155E-2,3.973484039E-3,-1.326423883E-1
9.744748692E0,-3.041267395E-2,-4.370182753E-3,-1.443613768E-1
9.763763587E0,-1.576423645E-2,-2.283379436E-2,-1.129887104E-1
9.782778483E0,-1.075172424E-2,-6.444446743E-2,-7.819616795E-2
9.801793379E0,-1.687908173E-2,-8.572983742E-2,-7.628834248E-2
9.820808275E0,-3.343772888E-2,-1.074835062E-1,-9.165811539E-2
9.839823171E0,-1.473712921E-2,-1.039222926E-1,-1.287193298E-1
9.858838067E0,-4.289627075E-3,-9.183579683E-2,-1.404132843E-1
9.877852962E0,-1.459121704E-2,-8.090533316E-2,-1.282237768E-1
9.896867858E0,-1.652431488E-2,-5.147618055E-2,-1.177505255E-1
9.915882806E0,-1.022243500E-2,-4.110556841E-2,-9.584403038E-2
9.934897702E0,-1.992797852E-2,-7.273855805E-2,-9.459066391E-2
9.953912598E0,-9.407997131E-3,-1.075982153E-1,-9.592127800E-2
9.972927494E0,-4.083347321E-2,-1.393569559E-1,-6.653285027E-2
9.991942389E0,-3.097915649E-2,-1.438848376E-1,-7.084381580E-2
1.001095728E1,-5.035400391E-4,-1.639049053E-1,-1.098690033E-1
1.002997218E1,-1.755142212E-2,-1.585431695E-1,-1.218007803E-1
1.004898708E1,-4.551029205E-2,-1.029755473E-1,-9.233975410E-2
1.006800197E1,-2.717494965E-2,-6.927669048E-2,-4.394435883E-2
1.008701692E1,-5.267143250E-3,-7.472604513E-2,-1.821637154E-3
1.010603182E1,-1.177215576E-2,-8.058112860E-2,-1.385450363E-2
1.012504671E1,-7.224082947E-3,-6.206706166E-2,-4.126465321E-2
1.014406161E1,-1.903247833E-2,-2.885104716E-2,-7.013797760E-2
1.016307650E1,-4.592704773E-2,-1.995915174E-2,-9.851729870E-2
1.018209140E1,-8.250904083E-2,-2.001342177E-2,-1.042582989E-1
1.020110630E1,-1.488113403E-2,-1.647427678E-2,-1.245884895E-1
1.022012124E1,6.817817688E-3,-5.146183074E-2,-1.291872263E-1
1.023913614E1,2.762222290E-2,-4.136924446E-2,-1.408607960E-1
1.025815104E1,-8.739471436E-3,-3.923916817E-2,-1.047958136E-1
1.027716593E1,-3.646755219E-2,-5.680769682E-2,-8.577001095E-2
1.029618083E1,-2.890682220E-2,-7.073889673E-2,-6.316947937E-2
1.031519572E1,-1.066398621E-2,-7.123382390E-2,-5.597376823E-2
1.033421062E1,-4.094123840E-3,-5.664877594E-2,-6.614387035E-2
1.035322551E1,-2.571773529E-2,-2.710533142E-2,-7.107317448E-2
1.037224046E1,-3.766822815E-2,-6.396114826E-3,-7.341229916E-2
1.039125536E1,-3.012084961E-2,1.430612803E-2,-5.470156670E-2
1.041027025E1,-2.360534668E-2,4.164400697E-2,-5.324554443E-2
1.042928515E1,-2.908897400E-2,3.995913267E-2,-5.933964252E-2
1.044830005E1,-3.791427612E-2,5.431935191E-2,-7.658743858E-2
1.046731494E1,-4.650688171E-2,6.489893794E-2,-7.400822639E-2
1.048632989E1,-2.742481232E-2,5.731540918E-2,-5.143380165E-2
1.050534478E1,-2.529335022E-2,2.088943124E-2,-2.762198448E-2
1.052435968E1,-4.809093475E-2,-5.858874321E-2,-6.830334663E-3
1.054337458E1,-2.770709991E-2,-1.111730784E-1,-1.656246185E-2
1.056238947E1,5.903244019E-4,-9.529547393E-2,-4.713714123E-2
1.058140437E1,-2.090358734E-2,-6.372213364E-2,-6.974542141E-2
1.060041926E1,-4.302024841E-2,-5.440700054E-2,-4.974162579E-2
1.061943421E1,-4.253768921E-2,-6.863376498E-2,-3.298127651E-2
1.063844911E1,-4.567718506E-2,-9.885001183E-2,-4.980540276E-2
1.065746400E1,-1.391696930E-2,-9.641170502E-2,-9.312558174E-2
1.067647890E1,1.637458801E-3,-1.024289876E-1,-1.108579636E-1
1.069549380E1,-5.253791809E-3,-6.351208687E-2,-1.128066778E-1
1.071450874E1,-2.909469604E-2,-3.266140819E-2,-9.343767166E-2
1.073352364E1,-2.659034729E-2,-4.286676645E-3,-8.798742294E-2
1.075253854E1,-3.411006927E-2,-2.051308751E-2,-1.036443710E-1
1.077155343E1,-1.849937439E-2,-4.328483343E-2,-1.255567074E-1
1.079056833E1,-1.272296906E-2,-6.319791079E-2,-1.239877939E-1
1.080958322E1,-1.304531097E-2,-7.581564784E-2,-1.336691380E-1
1.082859817E1,-1.726436615E-2,-9.537364542E-2,-1.274825335E-1
1.084761307E1,-2.157402039E-2,-1.068821400E-1,-9.549975395E-2
1.086662796E1,-1.937389374E-2,-8.269935846E-2,-7.168674469E-2
1.088564286E1,-8.391380310E-3,-6.383654475E-2,-7.844638824E-2
1.090465775E1,-5.166053772E-3,-4.503256083E-2,-8.632814884E-2
1.092367270E1,-3.824615479E-2,-2.061930299E-2,-8.374977112E-2
1.094268760E1,-1.744270325E-2,-1.434692740E-2,-7.672715187E-2
1.096170249E1,-1.078701019E-2,-8.752149343E-2,-9.046089649E-2
1.098071739E1,-2.430248260E-2,-1.097259820E-1,-9.866833687E-2
1.099973228E1,-2.769565582E-2,-7.199373841E-2,-9.399354458E-2
1.101874718E1,-2.256679535E-2,-3.765243292E-2,-7.291126251E-2
1.103776213E1,-2.435016632E-2,-1.577666402E-2,-6.831359863E-2
1.105677702E1,-6.997108459E-3,-4.115122557E-2,-6.958150864E-2
1.107579192E1,-6.935119629E-3,-5.291524529E-2,-6.952500343E-2
1.109480682E1,-2.179718018E-2,-4.919263721E-2,-7.322621346E-2
1.111382171E1,-2.724742889E-2,-3.882846236E-2,-8.572089672E-2
1.113283666E1,-2.380180359E-2,-3.360226750E-2,-1.102597713E-1
1.115185156E1,-2.073574066E-2,-4.994127154E-2,-1.023750305E-1
1.117086645E1,-2.342987061E-2,-5.739983916E-2,-8.754026890E-2
1.118988135E1,-6.753921509E-3,-4.562461376E-2,-8.660781384E-2
1.120889624E1,-1.138496399E-2,-5.715173483E-2,-8.841168880E-2
1.122791119E1,-3.343963623E-2,-5.900749564E-2,-9.481430054E-2
1.124692609E1,-1.760864258E-2,-7.588693500E-2,-1.028561592E-1
1.126594098E1,-2.157783508E-2,-4.251724482E-2,-8.921515942E-2
1.128495588E1,-2.791404724E-2,-2.577400208E-2,-9.878420830E-2
1.130397083E1,-1.584053040E-2,-3.416362405E-2,-9.281206131E-2
1.132298572E1,-1.249694824E-2,-5.226328969E-2,-9.234213829E-2
1.134200062E1,-1.804542542E-2,-5.215084553E-2,-8.677208424E-2
1.136101551E1,-2.151584625E-2,-3.874984384E-2,-9.893810749E-2
1.138003041E1,-8.574485779E-3,-2.238804102E-2,-8.650493622E-2
1.139904536E1,-2.786254883E-2,-4.447227716E-2,-8.817243576E-2
1.141806025E1,-3.315448761E-2,-5.544224381E-2,-9.185636044E-2
1.143707515E1,-1.812839508E-2,-5.669251084E-2,-8.771324158E-2
1.145609005E1,-1.441574097E-2,-3.929305077E-2,-8.291399479E-2
1.147510499E1,-2.612876892E-2,-4.161873460E-2,-9.674215317E-2
1.149411989E1,-2.430725098E-2,-5.142942071E-2,-8.536767960E-2
1.151313478E1,-1.692390442E-2,-5.201688409E-2,-9.269666672E-2
1.153214968E1,-1.845073700E-2,-6.410363317E-2,-8.619284630E-2
1.155116463E1,-2.308464050E-2,-5.069071054E-2,-1.040859222E-1
1.157017952E1,-1.938724518E-2,-2.851286530E-2,-1.291115284E-1
1.158919442E1,-8.633613586E-3,-4.198053479E-2,-1.131677628E-1
1.160820932E1,-1.090145111E-2,-6.639134884E-2,-9.436392784E-2
1.162722426E1,-1.962947845E-2,-9.265559912E-2,-7.916080952E-2
1.164623916E1,-2.596759796E-2,-8.404874802E-2,-7.941579819E-2
1.166525406E1,-3.395938873E-2,-5.006402731E-2,-1.181709766E-1
1.168426895E1,1.763343811E-3,-5.091008544E-2,-1.415891647E-1
1.170328390E1,-3.001213074E-2,-5.878829956E-2,-1.107953787E-1
1.172229880E1,-3.084087372E-2,-6.509703398E-2,-8.802330494E-2
1.174131369E1,2.748489380E-3,-5.373424292E-2,-6.198620796E-2
1.176032859E1,1.903533936E-3,-5.513104796E-2,-6.549227238E-2
1.177934354E1,-2.740478516E-2,-3.824165463E-2,-5.492389202E-2
1.179835843E1,-2.677917480E-2,-4.454389215E-2,-4.825842381E-2
1.181737333E1,-3.505802155E-2,-8.089116216E-2,-7.051622868E-2
1.183638828E1,-4.878044128E-2,-7.056966424E-2,-6.612169743E-2
1.185540317E1,-2.338409424E-2,-3.074988723E-2,-5.258142948E-2
1.187441807E1,-8.185386658E-3,-1.523566246E-2,-5.425786972E-2
1.189343296E1,-2.399349213E-2,-2.528953552E-2,-5.237805843E-2
1.191244791E1,-2.114963531E-2,-4.271760583E-2,-2.538394928E-2
1.193146281E1,-3.378963470E-2,-4.899260402E-2,-3.132379055E-2
1.195047770E1,-3.343486786E-2,-3.433260322E-2,-5.075323582E-2
1.196949265E1,-2.804374695E-2,-1.822584867E-2,-7.750761509E-2
1.198850755E1,-1.593589783E-2,-2.715548873E-2,-9.587419033E-2
1.200752244E1,-1.008701324E-2,-1.652285457E-2,-1.076837778E-1
1.202653734E1,-3.942871094E-2,-1.335582137E-2,-8.554005623E-2
1.204555229E1,-2.539825439E-2,-2.291265130E-2,-6.630885601E-2
1.206456718E1,-1.154136658E-2,-5.301263928E-2,-6.207168102E-2
1.208358208E1,-2.422523499E-2,-5.683487654E-2,-5.509459972E-2
1.210259703E1,-1.982593536E-2,-5.302605033E-2,-6.882011890E-2
1.212161192E1,-1.974201202E-2,-4.910990596E-2,-1.134157181E-1
1.214062682E1,-1.307296753E-2,-5.716982484E-2,-1.120502949E-1
1.215964176E1,-3.231525421E-2,-5.070212483E-2,-9.006321430E-2
1.217865666E1,-2.959537506E-2,-6.022447348E-2,-5.700528622E-2
1.219767156E1,-8.935928345E-3,-8.315810561E-2,-6.279730797E-2
1.221668650E1,5.032539368E-3,-8.984261751E-2,-7.184672356E-2
1.223570140E1,-2.933025360E-2,-9.444889426E-2,-9.840857983E-2
1.225471630E1,-2.804279327E-2,-8.177319169E-2,-9.180557728E-2
1.227373119E1,-2.724742889E-2,-8.220326900E-2,-8.846700191E-2
1.229274614E1,-1.980876923E-2,-8.331981301E-2,-9.718561172E-2
1.231176104E1,-4.036903381E-3,-8.340474963E-2,-1.095718145E-1
1.233077593E1,-1.916122437E-2,-8.153840899E-2,-8.531010151E-2
1.234979088E1,-3.164958954E-2,-7.417103648E-2,-6.086325645E-2
1.236880578E1,-4.073524475E-2,-5.586358905E-2,-5.847883224E-2
1.238782067E1,-2.694034576E-2,-4.427295923E-2,-6.742358208E-2
1.240683562E1,-1.382827759E-2,-4.233381152E-2,-5.517458916E-2
1.242585051E1,-1.633548737E-2,-2.797192335E-2,-2.815306187E-2
1.244486541E1,-2.534198761E-2,-3.465503454E-3,-3.646802902E-2
1.246388036E1,-2.498722076E-2,-1.322951913E-2,-4.926002026E-2
1.248289525E1,-2.759552002E-2,-4.744714499E-2,-4.230201244E-2
1.250191015E1,-3.434467316E-2,-7.124286890E-2,-4.075741768E-2
1.252092510E1,-4.204273224E-2,-6.195074320E-2,-4.986524582E-2
1.253993999E1,-3.766250610E-2,-6.997239590E-2,-9.058594704E-2
1.255895489E1,-1.352310181E-2,-5.099299550E-2,-1.082072258E-1
1.257796984E1,-3.793430328E-2,-2.158954740E-2,-8.544707298E-2
1.259698473E1,-3.156185150E-2,4.788517952E-3,-7.175886631E-2
1.261599968E1,4.918098450E-3,1.598632336E-2,-7.722115517E-2
1.263501458E1,1.414966583E-2,-8.844673634E-3,-8.291721344E-2
1.265402947E1,-2.759742737E-2,-5.607184768E-2,-6.257271767E-2
1.267304442E1,-2.102565765E-2,-8.733135462E-2,-6.688201427E-2
1.269205932E1,-1.225948334E-2,-1.028588116E-1,-1.101300716E-1
1.271107421E1,-3.263378143E-2,-9.795978665E-2,-1.025202274E-1
1.273008916E1,-2.033233643E-2,-6.858259439E-2,-8.209121227E-2
1.274910406E1,-1.228046417E-2,-4.014950991E-2,-6.315076351E-2
1.276811895E1,-3.257179260E-2,-3.442975879E-2,-6.385946274E-2
1.278713390E1,-2.347850800E-2,-2.774003148E-2,-5.275976658E-2
1.280614880E1,-7.629394531E-3,-3.458106518E-2,-5.285120010E-2
1.282516369E1,-1.078987122E-2,-4.974898696E-2,-6.643092632E-2
1.284417864E1,-2.736473083E-2,-5.237883329E-2,-8.951735497E-2
1.286319354E1,-3.262424469E-2,-7.427513599E-2,-8.929324150E-2
1.288220848E1,-3.254032135E-2,-6.691843271E-2,-7.830989361E-2
1.290122338E1,-2.859210968E-2,-3.690725565E-2,-5.726253986E-2
1.292023828E1,-7.730484009E-3,-2.940851450E-2,-7.048463821E-2
1.293925322E1,-1.128578186E-2,-3.961291909E-2,-8.560693264E-2
1.295826812E1,-4.500293732E-2,-4.464808106E-2,-8.495748043E-2
1.297728301E1,-2.313804626E-2,-3.968062997E-2,-1.265121698E-1
1.299629796E1,-6.093978882E-4,-6.378373504E-2,-1.215462685E-1
1.301531286E1,-6.090164185E-3,-6.996881962E-2,-9.363555908E-2
1.303432781E1,-2.928829193E-2,-5.993795395E-2,-7.793700695E-2
1.305334270E1,-2.462482452E-2,-6.867817044E-2,-7.909178734E-2
1.307235760E1,-1.449298859E-2,-5.977115035E-2,-1.026438475E-1
1.309137255E1,-1.177883148E-2,-6.509783864E-2,-8.258008957E-2
1.311038744E1,-2.183246613E-2,-9.843023121E-2,-7.389545441E-2
1.312940234E1,-2.495384216E-2,-8.537514508E-2,-1.010284424E-1
1.314841728E1,-2.562522888E-2,-6.121256948E-2,-1.178358793E-1
1.316743218E1,-1.924610138E-2,-3.955137730E-2,-8.653962612E-2
1.318644713E1,-2.537345886E-2,-3.692713380E-2,-4.965686798E-2
1.320546203E1,-1.737976074E-2,-2.693024278E-2,-5.435967445E-2
1.322447692E1,-2.359580994E-2,-3.000381589E-2,-7.183039188E-2
1.324349187E1,-2.890300751E-2,-4.438769817E-2,-6.749689579E-2
1.326250676E1,-1.303672791E-2,-4.538086057E-2,-6.653738022E-2
1.328152166E1,-1.842594147E-2,-4.684421420E-2,-6.135261059E-2
1.330053661E1,-3.859424591E-2,-3.140413761E-2,-6.578230858E-2
1.331955150E1,-3.548049927E-2,-3.376618028E-2,-6.812655926E-2
1.333856645E1,-3.073501587E-2,-3.587970138E-2,-7.590258121E-2
1.335758135E1,2.975463867E-4,-2.814820409E-2,-8.195924759E-2
1.337659624E1,-1.618289948E-2,-1.898068190E-2,-8.947253227E-2
1.339561119E1,-2.322864532E-2,-3.015172482E-2,-8.757805824E-2
1.341462609E1,-2.020454407E-2,-4.013070464E-2,-9.806847572E-2
1.343364104E1,-4.098129272E-2,-3.476151824E-2,-1.019142866E-1
1.345265593E1,-3.957176208E-2,-9.735703468E-3,-9.100341797E-2
1.347167083E1,-1.159000397E-2,-8.742302656E-3,-7.942664623E-2
1.349068578E1,2.223110199E-2,-4.193785787E-2,-8.595883846E-2
1.350970067E1,-1.889896393E-2,-4.540932178E-2,-6.132459641E-2
1.352871562E1,-3.852558136E-2,-2.381908894E-2,-6.009483337E-2
1.354773051E1,-1.908874512E-2,-3.249812126E-2,-6.907522678E-2
1.356674546E1,-3.032207489E-2,-5.745255947E-2,-1.010334492E-1
1.358576036E1,-2.408123016E-2,-5.523598194E-2,-9.071826935E-2
1.360477525E1,-4.113101959E-2,-3.669235110E-2,-6.982231140E-2
1.362379020E1,-4.130935669E-2,-3.428724408E-2,-4.126107693E-2
1.364280510E1,-1.883316040E-2,-7.409882545E-2,-2.678763866E-2
1.366182005E1,-6.732940674E-4,-9.620566666E-2,-3.598356247E-2
1.368083494E1,-1.012516022E-2,-7.232421637E-2,-6.249809265E-2
1.369984984E1,-5.124092102E-2,-5.852562189E-2,-7.444000244E-2
1.371886479E1,-5.767440796E-2,-6.904321909E-2,-8.256804943E-2
1.373787968E1,-1.549816132E-2,-5.389639735E-2,-8.782184124E-2
1.375689463E1,-1.200580597E-2,-3.499555588E-2,-7.740747929E-2
1.377590953E1,-1.651382446E-2,-1.316505671E-2,-5.713677406E-2
1.379492447E1,-2.739238739E-2,-5.951020122E-2,-4.957091808E-2
1.381393937E1,-4.559421539E-2,-6.397917867E-2,-5.808579922E-2
1.383295426E1,-3.435134888E-2,-3.862717748E-2,-7.496392727E-2
1.385196921E1,-3.096771240E-2,-3.307655454E-2,-8.918726444E-2
1.387098411E1,-1.861286163E-2,-4.046943784E-2,-7.766568661E-2
1.388999906E1,-2.411460876E-2,-4.434502125E-2,-6.725299358E-2
1.390901395E1,-2.748203278E-2,-2.324324846E-2,-6.937730312E-2
1.392802890E1,-2.680778503E-2,-1.652160287E-2,-6.136929989E-2
1.394704380E1,-4.770278931E-3,-3.093725443E-2,-4.340517521E-2
1.396605869E1,-2.017593384E-2,-6.489944458E-2,-5.382359028E-2
1.398507364E1,-4.699230194E-2,-7.566425204E-2,-5.593407154E-2
1.400408854E1,-3.312969208E-2,-5.846723914E-2,-9.229218960E-2
1.402310348E1,-1.752567291E-2,-4.815718532E-2,-1.065268517E-1
1.404211838E1,-1.558303833E-2,-3.459101915E-2,-1.053940058E-1
1.406113333E1,-1.408386230E-2,-4.856199026E-2,-9.685492516E-2
1.408014822E1,-1.792240143E-2,-7.553723454E-2,-1.060563326E-1
1.409916317E1,-1.631069183E-2,-8.419930935E-2,-8.677220345E-2
1.411817807E1,-8.436203003E-3,-7.931852341E-2,-8.540225029E-2
1.413719301E1,-2.536773682E-4,-8.694945276E-2,-8.447670937E-2
1.415620791E1,-2.823066711E-2,-7.909826934E-2,-7.874131203E-2
1.417522281E1,-3.582000732E-2,-7.544027269E-2,-1.013300419E-1
1.419423775E1,-1.793003082E-2,-7.119069993E-2,-9.927845001E-2
1.421325265E1,-7.747650146E-3,-8.158144355E-2,-1.000229120E-1
1.423226760E1,-8.635520935E-3,-7.864120603E-2,-1.029821634E-1
1.425128249E1,-3.033065796E-2,-7.168138027E-2,-8.102524281E-2
1.427029744E1,-5.847835541E-2,-6.620134413E-2,-5.110323429E-2
1.428931234E1,-3.483390808E-2,-6.477092206E-2,-3.983926773E-2
1.430832728E1,5.877494812E-3,-7.487492263E-2,-4.743623734E-2
1.432734218E1,-6.717681885E-3,-8.008125424E-2,-3.947854042E-2
1.434635713E1,-3.314018250E-2,-6.784757972E-2,-2.961337566E-2
1.436537203E1,-3.787422180E-2,-5.511917174E-2,-2.116429806E-2
1.438438697E1,-3.129291534E-2,-7.111991942E-2,-4.810345173E-2
1.440340187E1,-1.682758331E-2,-4.983672500E-2,-6.378602982E-2
1.442241682E1,-1.067066193E-2,-5.431413651E-2,-4.889345169E-2
1.444143171E1,-3.008651733E-2,-7.317443192E-2,-5.630266666E-2
1.446044666E1,-3.727340698E-2,-6.223466992E-2,-6.339037418E-2
1.447946156E1,-2.946186066E-2,-2.656686306E-2,-6.396782398E-2
1.449847650E1,-1.512622833E-2,-1.968908310E-2,-5.532717705E-2
1.451749140E1,-2.416515350E-2,-2.619570494E-2,-5.007636547E-2
1.453650635E1,-2.253055573E-2,-3.747341037E-2,-7.551670074E-2
1.455552124E1,-1.115417480E-2,-3.344836831E-2,-8.991730213E-2
1.457453619E1,-1.602745056E-2,-2.092447877E-2,-9.760963917E-2
1.459355109E1,-2.619743347E-2,7.457822561E-3,-1.025766134E-1
1.461256604E1,-1.064586639E-2,2.352863550E-3,-9.828925133E-2
1.463158093E1,-2.398586273E-2,-1.279830933E-2,-9.501671791E-2
1.465059588E1,-3.339385986E-2,-1.999622583E-2,-7.112407684E-2
1.466961078E1,-2.623653412E-2,-2.081280947E-2,-6.361138821E-2
1.468862567E1,-2.272319794E-2,-3.003978729E-2,-7.433021069E-2
1.470764062E1,-2.158355713E-2,-3.312402964E-2,-6.549525261E-2
1.472665557E1,-1.883888245E-2,-3.872013092E-2,-5.088937283E-2
1.474567046E1,-1.979637146E-2,-4.390555620E-2,-4.603219032E-2
1.476468536E1,-2.476215363E-2,-4.596687853E-2,-4.570877552E-2
1.478370031E1,-2.204322815E-2,-4.465317726E-2,-4.710721970E-2
1.480271525E1,-2.165699005E-2,-5.794274807E-2,-6.455004215E-2
1.482173015E1,-1.623344421E-2,-6.450121105E-2,-6.877303123E-2
1.484074505E1,-2.705478668E-2,-6.217905879E-2,-7.282435894E-2
1.485975999E1,-2.253818512E-2,-4.517647624E-2,-7.291257381E-2
1.487877494E1,-2.210235596E-2,-5.430108309E-2,-7.722008228E-2
1.489778984E1,-1.279640198E-2,-5.110876262E-2,-8.425605297E-2
1.491680478E1,-2.555179596E-2,-4.427830875E-2,-9.719681740E-2
1.493581968E1,-2.322006226E-2,-3.363183141E-2,-9.909951687E-2
1.495483463E1,-1.646518707E-2,-3.342372179E-2,-7.884109020E-2
1.497384952E1,-1.966476440E-2,-4.224061966E-2,-7.231068611E-2
1.499286447E1,-1.757526398E-2,-4.886806011E-2,-6.774032116E-2
1.501187937E1,-7.591247559E-3,-3.828641772E-2,-7.376980782E-2
1.503089432E1,-1.010990143E-2,-2.116072178E-2,-7.097005844E-2
1.504990921E1,-2.631855011E-2,-2.492958307E-2,-7.816123962E-2
1.506892416E1,-2.873229980E-2,-4.213830829E-2,-7.991349697E-2
1.508793906E1,-2.041625977E-2,-2.761679888E-2,-8.606076241E-2
1.510695400E1,-3.721714020E-2,-3.026926517E-2,-8.741760254E-2
1.512596890E1,-9.703636169E-3,-3.100749850E-2,-8.385372162E-2
1.514498385E1,1.066875458E-2,-3.339165449E-2,-6.792140007E-2
1.516399874E1,-1.356887817E-2,-3.415483236E-2,-5.387187004E-2
1.518301369E1,-4.489517212E-2,-2.202087641E-2,-4.857182503E-2
1.520202859E1,-2.514553070E-2,-5.192911625E-2,-7.394373417E-2
1.522104354E1,-2.583122253E-2,-8.643488586E-2,-1.038936377E-1
1.524005843E1,-9.292602539E-3,-6.156778336E-2,-9.795033932E-2
1.525907338E1,-5.916595459E-3,-1.707953215E-2,-7.473766804E-2
1.527808828E1,-4.230976105E-2,-2.329376340E-2,-6.471729279E-2
1.529710322E1,-4.237842560E-2,-3.207758069E-2,-6.216192245E-2
1.531611812E1,-2.998352051E-2,-3.997033834E-2,-6.648647785E-2
1.533513307E1,-1.262664795E-3,-4.621829093E-2,-6.362533569E-2
1.535414801E1,-1.395893097E-2,-4.920755327E-2,-4.837715626E-2
1.537316291E1,-5.123615265E-2,-2.908307314E-2,-5.922257900E-2
1.539217786E1,-4.043865204E-2,-2.221965790E-2,-8.437502384E-2
1.541119275E1,-5.354881287E-3,-2.694499493E-2,-8.169078827E-2
1.543020770E1,-1.679039001E-2,-2.261847258E-2,-7.427990437E-2
1.544922260E1,-2.653598785E-2,-2.889883518E-2,-7.641434669E-2
1.546823755E1,-2.923107147E-2,-6.016126275E-2,-8.409082890E-2
1.548725249E1,-2.536296844E-2,-7.206858695E-2,-5.924308300E-2
1.550626739E1,-8.867263794E-3,-6.915719807E-2,-6.312847137E-2
1.552528234E1,-1.548767090E-2,-6.995216012E-2,-8.466112614E-2
1.554429723E1,-2.283954620E-2,-5.889309943E-2,-9.746193886E-2
1.556331218E1,-2.881050110E-2,-4.785640538E-2,-9.222352505E-2
1.558232708E1,-2.676773071E-2,-3.562220931E-2,-7.755625248E-2
1.560134203E1,-1.705837250E-2,-5.235125124E-2,-6.059944630E-2
1.562035692E1,-7.707595825E-3,-4.368582368E-2,-4.737961292E-2
1.563937187E1,-1.677608490E-2,-3.819277883E-2,-5.491447449E-2
1.565838682E1,-3.007984161E-2,-3.726625443E-2,-5.158686638E-2
1.567740171E1,-2.381610870E-2,-4.781872034E-2,-5.413067341E-2
1.569641666E1,-2.839374542E-2,-3.575271368E-2,-4.642534256E-2
1.571543156E1,-1.501846313E-2,-3.335899115E-2,-5.418443680E-2
1.573444650E1,-1.661396027E-2,-5.014722049E-2,-5.520713329E-2
1.575346140E1,-3.008460999E-2,-6.543911994E-2,-5.498695374E-2
1.577247635E1,-3.223991394E-2,-3.054767847E-2,-5.460298061E-2
1.579149130E1,-2.122783661E-2,-2.057167888E-2,-6.526601315E-2
1.581050619E1,-2.203655243E-2,-3.431886435E-2,-5.302286148E-2
1.582952114E1,-2.823352814E-2,-3.934173286E-2,-5.321097374E-2
1.584853604E1,-1.182365417E-2,-4.288625717E-2,-6.054639816E-2
1.586755098E1,-5.571365356E-3,-3.978158534E-2,-7.231819630E-2
1.588656593E1,-2.742481232E-2,-3.699718416E-2,-8.061373234E-2
1.590558083E1,-3.042507172E-2,-5.786637962E-2,-1.035544872E-1
1.592459578E1,-1.024055481E-2,-6.394916773E-2,-1.074377298E-1
1.594361067E1,-2.913570404E-2,-4.088906944E-2,-8.571267128E-2
1.596262562E1,-1.936054230E-2,-2.015259862E-2,-7.068336010E-2
1.598164057E1,-2.511978149E-3,-2.185964584E-2,-8.393061161E-2
1.600065546E1,-1.247787476E-2,-4.223854840E-2,-7.519900799E-2
1.601967041E1,-3.904724121E-2,-5.636985600E-2,-3.920078278E-2
1.603868531E1,-2.055168152E-2,-6.837341189E-2,-5.227065086E-2
1.605770025E1,-1.429462433E-2,-8.992625773E-2,-8.905458450E-2
1.607671520E1,-3.722381592E-2,-6.947433949E-2,-1.022720337E-1
1.609573010E1,-2.645587921E-2,-5.151991546E-2,-8.671736717E-2
1.611474505E1,-2.833461761E-2,-4.431363940E-2,-7.667744160E-2
1.613375999E1,-2.904415131E-2,-4.662331939E-2,-7.485723495E-2
1.615277489E1,-1.970481873E-2,-4.106612504E-2,-5.052900314E-2
1.617178984E1,-2.289390564E-2,-5.240729451E-2,-2.469658852E-2
1.619080473E1,-2.484989166E-2,-7.581615448E-2,-1.670718193E-3
1.620981968E1,-2.429294586E-2,-7.234618068E-2,-3.344476223E-2
1.622883463E1,-3.317928314E-2,-5.975809693E-2,-6.236791611E-2
1.624784952E1,-2.021503448E-2,-4.037560523E-2,-8.481371403E-2
1.626686447E1,-2.341270447E-2,-6.962776184E-3,-5.732083321E-2
1.628587942E1,-2.828216553E-2,-1.053404808E-2,-2.148795128E-2
1.630489432E1,-2.068710327E-2,-2.642682195E-2,-1.401984692E-2
1.632390926E1,-2.636909485E-2,-2.820472419E-2,-4.537260532E-2
1.634292421E1,-3.065872192E-2,-4.377102852E-2,-5.133199692E-2
1.636193911E1,-2.165508270E-2,-4.938606918E-2,-3.489780426E-2
1.638095406E1,-2.132797241E-2,-6.579539180E-2,-2.743113041E-2
1.639996895E1,-2.931976318E-2,-5.418893695E-2,-5.074059963E-2
1.641898390E1,-3.800487518E-2,-3.429158032E-2,-3.664779663E-2
1.643799885E1,-3.628730774E-2,-4.836557806E-2,-3.198230267E-2
1.645701380E1,-2.017307281E-2,-4.513509572E-2,-4.931330681E-2
1.647602869E1,-8.497238159E-3,-4.768908024E-2,-8.161723614E-2
1.649504364E1,-2.557849884E-2,-7.148031890E-2,-7.323288918E-2
1.651405859E1,-3.269004822E-2,-4.900594056E-2,-4.706406593E-2
1.653307348E1,-3.257274628E-2,-4.780450463E-2,-3.479099274E-2
1.655208843E1,-1.634120941E-2,-2.695587277E-2,-6.151831150E-2
1.657110338E1,-9.592056274E-3,-6.328363717E-2,-8.977997303E-2
1.659011828E1,-7.281303406E-3,-6.787776947E-2,-9.443211555E-2
1.660913322E1,-2.401161194E-2,-6.302043796E-2,-8.656096458E-2
1.662814812E1,-4.499530792E-2,-4.795838892E-2,-9.646356106E-2
1.664716307E1,-2.777099609E-2,-4.884712398E-2,-8.733749390E-2
1.666617801E1,-1.101589203E-2,-6.519809365E-2,-6.382322311E-2
1.668519296E1,-6.693840027E-3,-6.319788098E-2,-2.257561684E-2
1.670420786E1,-2.668952942E-2,-6.043358147E-2,-7.692098618E-3
1.672322281E1,-3.389358521E-2,-4.728800058E-2,-2.927529812E-2
1.674223775E1,-2.621936798E-2,-5.173724890E-2,-6.587719917E-2
1.676125265E1,-1.015377045E-2,-4.142241180E-2,-7.946908474E-2
1.678026760E1,-4.142379761E-2,-4.280358553E-2,-5.662560463E-2
1.679928255E1,-4.086112976E-2,-5.599001050E-2,-3.866744041E-2
1.681829744E1,-1.045989990E-2,-6.772494316E-2,-4.344475269E-2
1.683731239E1,5.580902100E-3,-4.340784252E-2,-6.367540359E-2
1.685632734E1,-3.148174286E-2,-2.144223452E-2,-5.874848366E-2
1.687534223E1,-3.848171234E-2,-4.606190324E-2,-4.086482525E-2
1.689435718E1,-4.029560089E-2,-7.506066561E-2,-6.932675838E-2
1.691337213E1,-2.575874329E-2,-3.848473728E-2,-8.448565006E-2
1.693238708E1,-1.298522949E-2,-8.833825588E-3,-7.618999481E-2
1.695140197E1,-2.105712891E-2,-5.687445402E-3,-6.939971447E-2
1.697041692E1,-2.780532837E-2,-1.725453138E-2,-6.332755089E-2
1.698943187E1,-8.528709412E-3,-3.025931120E-2,-7.092320919E-2
1.700844676E1,-1.345252991E-2,-4.030396044E-2,-7.332706451E-2
1.702746171E1,-3.636932373E-2,-3.503122926E-2,-5.993652344E-2
1.704647666E1,-5.349349976E-2,-3.495812416E-2,-6.025242805E-2
1.706549156E1,-1.027965546E-2,-3.289833665E-2,-6.978726387E-2
1.708450650E1,7.329940796E-3,-1.878830791E-2,-7.678651810E-2
1.710352145E1,-2.740955353E-2,-4.347056150E-3,-5.300259590E-2
1.712253640E1,-3.305435181E-2,-1.345196366E-2,-3.869497776E-2
1.714155130E1,-3.462123871E-2,-6.660999358E-2,-4.820716381E-2
1.716056624E1,-2.077770233E-2,-5.264183879E-2,-4.752612114E-2
1.717958119E1,-3.272724152E-2,-1.178523898E-2,-6.025087833E-2
1.719859614E1,-3.395271301E-2,-1.027789712E-2,-4.248154163E-2
1.721761104E1,-4.327583313E-2,-2.840054035E-2,-3.426551819E-2
1.723662598E1,-4.109382629E-2,-6.611877680E-2,-2.127563953E-2
1.725564093E1,-3.450202942E-2,-6.591020525E-2,-3.271913528E-2
1.727465588E1,-2.214813232E-2,-3.663784266E-2,-2.038538456E-2
1.729367078E1,-3.100013733E-2,-1.531848311E-2,-2.364373207E-2
1.731268572E1,-3.557777405E-2,-4.070550203E-3,-2.683460712E-2
1.733170067E1,-3.121471405E-2,-4.924795032E-2,-3.549015522E-2
1.735071562E1,-3.311252594E-2,-8.305081725E-2,-4.086196423E-2
1.736973051E1,-1.534938812E-2,-8.987742662E-2,-4.500865936E-2
1.738874546E1,-7.305145264E-4,-8.122587204E-2,-4.565024376E-2
1.740776041E1,-1.789093018E-3,-5.677260458E-2,-4.839336872E-2
1.742677531E1,-3.623104095E-2,-4.798832536E-2,-5.804574490E-2
1.744579025E1,-4.190254211E-2,-6.859865785E-2,-7.051610947E-2
1.746480520E1,-3.158187866E-2,-5.287262797E-2,-9.547543526E-2
1.748382015E1,-2.378654480E-2,-4.755952954E-2,-1.026940346E-1
1.750283505E1,-2.910232544E-2,-4.297113419E-2,-9.164845943E-2
1.752184999E1,-1.831722260E-2,-3.837223351E-2,-7.120740414E-2
1.754086494E1,-1.249217987E-2,-3.917416930E-2,-7.643485069E-2
1.755987989E1,-3.352165222E-3,-4.392822087E-2,-7.051908970E-2
1.757889479E1,-1.435184479E-2,-5.112025142E-2,-5.483269691E-2
1.759790973E1,-2.299594879E-2,-5.831357837E-2,-5.512130260E-2
1.761692468E1,-2.321720123E-2,-6.615217030E-2,-5.560910702E-2
1.763593963E1,-2.438735962E-2,-5.195403099E-2,-5.144655704E-2
1.765495452E1,-3.449535370E-2,-2.442389727E-2,-4.208362103E-2
1.767396947E1,-1.167774200E-2,-1.660290360E-2,-3.479170799E-2
1.769298442E1,-6.791114807E-3,-4.854688048E-2,-4.828381538E-2
1.771199937E1,-2.794837952E-2,-8.442762494E-2,-7.173705101E-2
1.773101432E1,-2.197647095E-2,-8.324499428E-2,-7.397401333E-2
1.775002921E1,-2.031993866E-2,-4.555794597E-2,-7.313692570E-2
1.776904416E1,-2.279949188E-2,-1.693266630E-2,-7.528781891E-2
1.778805911E1,-2.708148956E-2,-2.806624770E-2,-6.501555443E-2
1.780707406E1,-1.732444763E-2,-3.934091330E-2,-7.376241684E-2
1.782608900E1,-1.516532898E-2,-6.544905901E-2,-1.056994200E-1
1.784510390E1,-2.470779419E-2,-6.840345263E-2,-1.108484268E-1
1.786411885E1,-1.302051544E-2,-6.532347202E-2,-1.165831089E-1
1.788313380E1,-1.224231720E-2,-5.970895290E-2,-8.457291126E-2
1.790214874E1,-2.223014832E-2,-3.755538166E-2,-6.960701942E-2
1.792116364E1,-2.260303497E-2,-3.866845369E-2,-8.120107651E-2
1.794017859E1,-2.333736420E-2,-3.356696665E-2,-1.189095974E-1
1.795919354E1,-8.398056030E-3,-6.926621497E-2,-1.232749224E-1
1.797820848E1,-1.088428497E-2,-7.266415656E-2,-1.094310284E-1
1.799722343E1,-2.044296265E-2,-5.427002907E-2,-1.060470343E-1
1.801623833E1,-2.875232697E-2,-5.608814955E-2,-1.224431992E-1
1.803525328E1,-1.945590973E-2,-6.140589714E-2,-1.425352097E-1
1.805426822E1,-9.532928467E-3,-6.042893231E-2,-1.272361279E-1
1.807328317E1,-1.939392090E-2,-4.294131696E-2,-9.605860710E-2
1.809229812E1,-2.389335632E-2,-3.433614969E-2,-7.370138168E-2
1.811131301E1,-1.773548126E-2,-3.776328266E-2,-7.609939575E-2
1.813032796E1,-7.725715637E-3,-5.298300087E-2,-9.398567677E-2
1.814934291E1,-2.386474609E-2,-3.874395788E-2,-9.096133709E-2
1.816835786E1,-3.392791748E-2,-2.085672319E-2,-6.988596916E-2
1.818737281E1,-2.937412262E-2,-1.319208741E-2,-6.014943123E-2
1.820638775E1,-1.521110535E-2,-2.807801962E-2,-5.918490887E-2
1.822540265E1,-1.298427582E-2,-5.004905164E-2,-7.018315792E-2
1.824441760E1,-1.916313171E-2,-4.662644863E-2,-6.072473526E-2
1.826343255E1,-1.971149445E-2,-3.220932186E-2,-7.882285118E-2
1.828244749E1,-2.460670471E-2,-1.581063867E-2,-8.741736412E-2
1.830146244E1,-2.296924591E-2,-2.981773019E-2,-8.971440792E-2
1.832047734E1,-1.477241516E-2,-2.848920226E-2,-7.193088531E-2
1.833949229E1,-2.127265930E-2,-4.161186516E-2,-9.424471855E-2
1.835850723E1,-2.276420593E-3,-4.140703380E-2,-1.205952168E-1
1.837752218E1,8.296966553E-4,-3.821446002E-2,-1.456063986E-1
1.839653713E1,-4.517078400E-2,-5.549499393E-2,-1.077686548E-1
1.841555208E1,-4.258537292E-2,-6.119659543E-2,-7.304668427E-2
1.843456697E1,4.714012146E-3,-5.466488004E-2,-8.046221733E-2
1.845358192E1,1.592922211E-2,-4.773947597E-2,-9.014713764E-2
1.847259687E1,-3.553867340E-2,-3.754842281E-2,-6.174290180E-2
1.849161182E1,-3.375244141E-2,-5.468136072E-2,-2.036845684E-2
1.851062676E1,-3.536605835E-2,-7.105042040E-2,-5.850052834E-2
1.852964171E1,-2.363681793E-2,-3.187374771E-2,-8.492398262E-2
1.854865661E1,-1.333332062E-2,-3.353253007E-2,-9.174239635E-2
1.856767156E1,-2.588748932E-2,-4.640527070E-2,-7.372176647E-2
1.858668650E1,-3.274631500E-2,-3.313145041E-2,-4.440546036E-2
1.860570145E1,-7.011413574E-3,-2.278099954E-2,-3.245449066E-2
1.862471640E1,-1.664257050E-2,-3.952491283E-2,-4.898869991E-2
1.864373135E1,-2.735233307E-2,-6.245902181E-2,-6.035923958E-2
1.866274624E1,-3.308486938E-2,-4.968996346E-2,-4.182064533E-2
1.868176119E1,-1.339912415E-2,-2.861098945E-2,-6.404483318E-2
1.870077614E1,-5.516052246E-3,-3.442943096E-3,-9.590113163E-2
1.871979109E1,-3.131389618E-2,-5.591452122E-3,-1.049293280E-1
1.873880604E1,-1.820945740E-2,-2.391055226E-2,-8.172881603E-2
1.875782098E1,-1.898097992E-2,-5.109006166E-2,-6.276416779E-2
1.877683588E1,-2.046585083E-2,-5.827422440E-2,-6.398165226E-2
1.879585083E1,-1.610374451E-2,-5.381561816E-2,-8.587920666E-2
1.881486578E1,-2.274894714E-2,-6.507787108E-2,-9.250807762E-2
1.883388072E1,-2.773952484E-2,-5.597595870E-2,-9.406769276E-2
1.885289567E1,-2.275180817E-2,-2.579426765E-2,-5.797839165E-2
1.887191062E1,-2.768516541E-2,-1.987385750E-2,-5.295920372E-2
1.889092557E1,-2.500057220E-2,-3.676989675E-2,-4.891157150E-2
1.890994046E1,-1.428985596E-2,-6.295287609E-2,-6.044042110E-2
1.892895541E1,-1.691818237E-2,-7.085478306E-2,-5.862307549E-2
1.894797036E1,-2.374458313E-2,-5.863057077E-2,-6.378495693E-2
1.896698531E1,-2.690410614E-2,-2.969971299E-2,-8.387517929E-2
1.898600025E1,-2.125072479E-2,-2.203951776E-2,-6.633150578E-2
1.900501520E1,-2.042675018E-2,-2.398644388E-2,-5.237007141E-2
1.902403015E1,-2.776813507E-2,-5.192084610E-2,-5.668532848E-2
1.904304505E1,-1.757812500E-2,-6.393159926E-2,-6.952273846E-2
1.906205999E1,-1.894378662E-2,-4.702553153E-2,-8.137822151E-2
1.908107494E1,-2.359580994E-2,-5.449742079E-2,-9.313154221E-2
1.910008989E1,-2.218246460E-2,-6.632684171E-2,-8.551609516E-2
1.911910484E1,-2.325534821E-2,-6.183519959E-2,-7.077383995E-2
1.913811978E1,-2.022171021E-2,-3.891612589E-2,-5.716013908E-2
1.915713473E1,-5.471229553E-3,-3.481553495E-2,-7.597744465E-2
1.917614963E1,-2.009773254E-2,-3.082567453E-2,-9.199881554E-2
1.919516458E1,-3.679656982E-2,-7.555076480E-2,-9.306848049E-2
1.921417953E1,-2.777862549E-2,-1.116359830E-1,-9.071791172E-2
1.923319447E1,-1.294040680E-2,-7.896760106E-2,-6.986582279E-2
1.925220942E1,-3.730106354E-2,-5.257143080E-2,-8.073580265E-2
1.927122437E1,-1.972579956E-2,-8.441424370E-2,-5.577087402E-2
1.929023932E1,1.231193542E-3,-9.012092650E-2,-3.973412514E-2
1.930925426E1,-1.614284515E-2,-4.945969582E-2,-4.069566727E-3
1.932826916E1,-5.504798889E-2,-1.430803537E-2,1.285612583E-2
1.934728411E1,-6.055068970E-2,-6.331205368E-3,-8.574604988E-3
1.936629906E1,-5.630779266E-2,1.221776009E-2,-3.537583351E-2
1.938531400E1,-3.969383240E-2,4.575642943E-2,-2.515089512E-2
1.940432895E1,-3.372764587E-2,4.819923639E-2,1.531243324E-2
1.942334390E1,-3.894329071E-2,1.722323895E-2,3.458011150E-2
1.944235885E1,-5.041217804E-2,-1.520994306E-2,1.865899563E-2
1.946137380E1,-3.984355927E-2,1.554396749E-2,9.606242180E-3
1.948038869E1,-2.773380280E-2,6.914043427E-2,-9.998083115E-3
1.949940364E1,-1.822280884E-2,2.855390310E-2,-2.339053154E-2
1.951841859E1,-3.094387054E-2,-2.022707462E-2,2.072453499E-3
1.953743354E1,-3.980064392E-2,-4.391646385E-2,-6.241202354E-3
1.955644848E1,-4.595565796E-2,-1.687085629E-2,-2.511584759E-2
1.957546343E1,1.254081726E-3,-1.222938299E-2,-5.077087879E-2
1.959447838E1,3.414916992E-2,-5.271202326E-2,-7.423114777E-2
1.961349333E1,4.593849182E-3,-5.240559578E-2,-9.160804749E-2
1.963250828E1,-4.348945618E-2,-4.075744748E-2,-8.134412766E-2
1.965152317E1,-8.421421051E-2,-3.022065759E-2,-1.069124937E-1
1.967053812E1,-6.080055237E-2,-4.931740463E-2,-1.115170717E-1
1.968955307E1,-1.745223999E-3,-8.368134499E-3,-1.247098446E-1
1.970856801E1,2.130031586E-2,-3.620834649E-2,-1.110912561E-1
1.972758296E1,1.591968536E-2,-1.291130036E-1,-1.003717184E-1
1.974659791E1,-3.385353088E-2,-1.240554601E-1,-1.620346308E-1
1.976561286E1,-1.933097839E-2,-1.287056357E-1,-1.585390568E-1
1.978462781E1,-2.332401276E-2,-1.215562075E-1,-1.373480558E-1
1.980364275E1,-1.820278168E-2,-1.407577991E-1,-1.587710381E-1
1.982265765E1,2.367973328E-3,-9.014876187E-2,-1.268979311E-1
1.984167260E1,1.011848450E-3,-6.793388724E-2,-8.245754242E-2
1.986068755E1,-3.593158722E-2,-6.831364334E-2,-6.883144379E-2
1.987970249E1,-5.524635315E-3,-2.136927843E-2,-9.733843803E-2
1.989871744E1,1.205348969E-2,-2.764612436E-2,-9.837138653E-2
1.991773239E1,-2.460098267E-2,-6.170038879E-2,-9.370577335E-2
1.993674734E1,-4.315853119E-2,-9.316694736E-2,-4.516732693E-2
1.995576229E1,-2.185153961E-2,-1.313199401E-1,-1.600742340E-2
1.997477723E1,-2.112197876E-2,-1.403204054E-1,-3.828489780E-2
1.999379218E1,-2.264499664E-2,-1.460613012E-1,-6.627559662E-2
2.001280713E1,-2.888202667E-2,-1.168342233E-1,-8.009719849E-2
2.003182202E1,-2.626419067E-2,-8.803486824E-2,-6.955456734E-2
2.005083697E1,-2.547264099E-3,-1.242304444E-1,-8.536565304E-2
2.006985192E1,6.303787231E-3,-1.630362868E-1,-4.622781277E-2
2.008886687E1,-2.799034119E-2,-1.383554041E-1,-1.443719864E-2
2.010788182E1,-1.914215088E-2,-9.429146349E-2,-1.331126690E-2
2.012689676E1,-3.549575806E-3,-8.030518889E-2,-4.052948952E-2
2.014591171E1,1.191139221E-3,-6.161054969E-2,-3.395760059E-2
2.016492666E1,-2.682971954E-2,-2.474260330E-2,-3.873550892E-2
2.018394161E1,-3.271484375E-2,-2.306726575E-2,-3.222894669E-2
2.020295656E1,-3.921699524E-2,-1.599982381E-2,-3.197252750E-2
2.022197150E1,-6.560420990E-2,2.780094743E-2,-5.372011662E-2
2.024098640E1,-5.427551270E-2,6.215223670E-2,-8.622992039E-2
2.026000135E1,-1.736164093E-2,4.299587011E-2,-1.011207104E-1
2.027901630E1,-2.244377136E-2,1.210027933E-2,-6.834506989E-2
2.029803124E1,-2.997112274E-2,1.285225153E-2,-2.782416344E-2
2.031704619E1,-2.937889099E-2,1.583033800E-2,-1.576614380E-2
2.033606114E1,-1.880550385E-2,1.374450326E-2,-4.111909866E-2
2.035507609E1,-2.268123627E-2,-1.963734627E-3,-6.499111652E-2
2.037409104E1,-3.444862366E-2,2.367705107E-2,-1.151077747E-1
2.039310598E1,-5.569362640E-2,4.788175225E-2,-1.299394369E-1
2.041212093E1,-5.567264557E-2,1.221612096E-2,-9.330868721E-2
2.043113588E1,-2.341365814E-2,-6.693899632E-4,-4.473221302E-2
2.045015083E1,-2.548217773E-2,1.301297545E-2,-3.558516502E-2
2.046916578E1,-2.028656006E-2,2.828758955E-2,-4.454946518E-2
2.048818067E1,-2.210426331E-2,4.715675116E-2,-4.895067215E-2
2.050719562E1,-5.566501617E-2,6.758213043E-2,-7.155656815E-3
2.052621057E1,-5.531024933E-2,5.986079574E-2,1.159048080E-2
2.054522551E1,-2.034568787E-2,4.336577654E-2,-6.939530373E-3
2.056424046E1,-2.641201019E-2,3.059685230E-2,-1.221668720E-2
2.058325541E1,-4.266643524E-2,7.587581873E-3,-1.762008667E-2
2.060227036E1,-3.453445435E-2,-2.696138620E-2,-2.118885517E-2
2.062128531E1,-9.478569031E-3,-4.476371408E-2,-2.684795856E-2
2.064030025E1,-5.642890930E-3,-4.056513309E-2,-5.115318298E-2
2.065931520E1,-3.405475616E-2,-1.771757007E-2,-5.314958096E-2
2.067833015E1,-4.726696014E-2,-7.294863462E-3,-9.290349483E-2
2.069734510E1,-2.868270874E-2,-4.219970107E-2,-8.671319485E-2
2.071636005E1,-2.509975433E-2,-4.082843661E-2,-6.511294842E-2
2.073537499E1,-2.072811127E-2,-4.621592164E-2,-5.235421658E-2
2.075438994E1,-2.157115936E-2,-5.623874068E-2,-5.713164806E-2
2.077340489E1,-3.213119507E-2,-9.836386144E-2,-5.946338177E-2
2.079241984E1,-2.103424072E-2,-1.078054905E-1,-8.041381836E-2
2.081143479E1,3.149032593E-3,-9.300753474E-2,-1.086722612E-1
2.083044973E1,-1.076602936E-2,-5.250631273E-2,-8.983719349E-2
2.084946463E1,-2.965259552E-2,-2.889084816E-2,-7.670331001E-2
2.086847958E1,-4.337692261E-2,-3.194540739E-3,-5.034351349E-2
2.088749452E1,-8.253097534E-2,-7.873654366E-3,-4.183888435E-2
2.090650947E1,-3.793334961E-2,-3.265434504E-2,-4.687285423E-2
2.092552442E1,1.027965546E-2,-8.077880740E-2,-3.490066528E-2
2.094453937E1,-6.219863892E-3,-9.779989719E-2,-2.322423458E-2
2.096355432E1,-2.894973755E-2,-6.303076446E-2,-5.589723587E-4
2.098256926E1,-1.413154602E-2,-3.048253059E-2,-1.215791702E-2
2.100158421E1,-3.521060944E-2,-3.654959798E-2,-4.085993767E-2
2.102059916E1,-4.168224335E-2,-4.954199493E-2,-5.851066113E-2
2.103961411E1,-1.445293427E-2,-6.790766120E-2,-5.835521221E-2
2.105862906E1,-1.521110535E-2,-9.214627743E-2,-5.278086662E-2
2.107764400E1,-2.320575714E-2,-7.900294662E-2,-6.494641304E-2
2.109665895E1,-1.993274689E-2,-6.044693291E-2,-6.638467312E-2
2.111567390E1,-1.240539551E-2,-5.165483057E-2,-7.301247120E-2
2.113468885E1,-1.551914215E-2,-6.121250987E-2,-6.797683239E-2
2.115370380E1,-8.964538574E-3,-4.525926709E-2,-8.134770393E-2
2.117271874E1,-1.440525055E-2,-4.372560978E-2,-8.863282204E-2
2.119173369E1,-4.878234863E-2,-4.946565628E-2,-8.589422703E-2
2.121074864E1,-4.532146454E-2,-4.212866724E-2,-8.759224415E-2
2.122976359E1,-7.575035095E-3,-6.350466609E-2,-8.960664272E-2
2.124877854E1,-9.326934814E-3,-4.392857850E-2,-8.113288879E-2
2.126779348E1,-1.979446411E-2,-5.174031854E-2,-6.022834778E-2
2.128680843E1,-7.598876953E-3,-5.606240034E-2,-5.282700062E-2
2.130582338E1,-9.265899658E-3,-5.457489192E-2,-6.920254230E-2
2.132483833E1,-2.292823792E-2,-2.647355199E-2,-6.856119633E-2
2.134385328E1,-4.537105560E-2,-5.527585745E-3,-4.647350311E-2
2.136286822E1,-3.650379181E-2,-2.272006869E-2,-4.413342476E-2
2.138188317E1,-2.601623535E-2,-3.661528230E-2,-2.061450481E-2
2.140089812E1,-2.175712585E-2,-4.942554235E-2,-1.260280609E-3
2.141991307E1,-1.653099060E-2,-7.087694108E-2,-1.304793358E-2
2.143892801E1,-2.093791962E-2,-8.720025420E-2,-3.403627872E-2
2.145794296E1,-4.121208191E-2,-5.999320745E-2,-5.728459358E-2
2.147695791E1,-4.442024231E-2,-4.606959224E-2,-3.913390636E-2
2.149597286E1,-3.911495209E-2,-4.217568040E-2,-2.521693707E-2
2.151498781E1,-2.721500397E-2,-6.457258761E-2,-1.392388344E-2
2.153400275E1,-3.272914886E-2,-8.598385751E-2,-5.361557007E-3
2.155301770E1,-1.985263824E-2,-5.341199040E-2,7.119178772E-3
2.157203265E1,-1.406478882E-2,-4.286935925E-2,-2.887225151E-2
2.159104760E1,-3.774166107E-2,-5.829073489E-2,-7.819795609E-2
2.161006255E1,-3.366470337E-2,-6.861242652E-2,-6.973493099E-2
2.162907749E1,-2.393817902E-2,-5.428932607E-2,-7.622885704E-2
2.164809244E1,-3.177070618E-2,-1.630659401E-2,-9.007012844E-2
2.166710739E1,-2.886295319E-2,-5.099107325E-2,-8.603489399E-2
2.168612234E1,-6.342887878E-3,-6.209509075E-2,-9.479796886E-2
2.170513729E1,-3.570461273E-2,-6.365409493E-2,-8.789503574E-2
2.172415223E1,-1.513195038E-2,-8.330117166E-2,-8.908987045E-2
2.174316718E1,1.378154755E-2,-8.335664868E-2,-9.483134747E-2
2.176218213E1,-8.769989014E-3,-5.746866763E-2,-9.004807472E-2
2.178119713E1,-4.321479797E-2,-3.234982491E-2,-6.418669224E-2
2.180021208E1,-3.021717072E-2,-5.927556753E-2,-6.497204304E-2
2.181922702E1,-8.139610291E-3,-8.365330100E-2,-8.881628513E-2
2.183824197E1,-1.916217804E-2,-6.305564940E-2,-8.828055859E-2
2.185725692E1,-3.708076477E-2,-4.173587263E-2,-8.481025696E-2
2.187627187E1,-2.683067322E-2,-4.409939051E-2,-7.457458973E-2
2.189528682E1,-2.128505707E-2,-5.025273561E-2,-6.436026096E-2
2.191430176E1,-1.928806305E-2,-4.239083827E-2,-6.209635735E-2
2.193331671E1,-2.811717987E-2,-2.488061786E-3,-4.729247093E-2
2.195233166E1,-2.343177795E-2,-1.318146288E-2,-3.829157352E-2
2.197134661E1,-2.908992767E-2,-1.816737652E-2,-4.187452793E-2
2.199036156E1,-1.389694214E-2,-2.689577639E-2,-5.630767345E-2
2.200937650E1,-1.839351654E-2,-4.654520750E-2,-4.597985744E-2
2.202839145E1,-3.967952728E-2,-1.370641589E-2,-7.330763340E-2
2.204740640E1,-3.091621399E-2,-2.503471076E-2,-7.912814617E-2
2.206642140E1,-2.405071259E-2,-2.392479777E-2,-8.080422878E-2
2.208543635E1,-2.923774719E-2,-5.466639996E-3,-5.665099621E-2
2.210445130E1,-2.260780334E-2,3.100588918E-3,-3.719890118E-2
2.212346624E1,-2.720355988E-2,-9.312361479E-3,-5.654084682E-2
2.214248119E1,-1.964187622E-2,-4.156804085E-2,-7.518899441E-2
2.216149614E1,-2.012538910E-2,-8.126693964E-2,-8.181583881E-2
2.218051109E1,-3.110408783E-2,-9.233208001E-2,-8.074176311E-2
2.219952604E1,-2.645492554E-2,-6.816829741E-2,-7.685601711E-2
2.221854098E1,-2.173423767E-2,-5.726452172E-2,-6.466186047E-2
2.223755593E1,-2.810668945E-2,-4.465761781E-2,-5.470919609E-2
2.225657088E1,-2.307319641E-2,-6.174266338E-2,-6.673002243E-2
2.227558583E1,-7.705688477E-3,-8.122822642E-2,-7.298374176E-2
2.229460083E1,-2.273368835E-2,-6.648485363E-2,-9.347450733E-2
2.231361578E1,-3.298664093E-2,-6.715033948E-2,-9.291505814E-2
2.233263072E1,-1.745033264E-2,-6.472381949E-2,-6.991589069E-2
2.235164567E1,-1.648616791E-2,-5.229276419E-2,-4.632115364E-2
2.237066062E1,-2.817916870E-2,-4.649028182E-2,-3.309106827E-2
2.238967557E1,-1.054668427E-2,-7.033348083E-2,-3.405475616E-2
2.240869051E1,4.224777222E-4,-6.858289242E-2,-5.811417103E-2
2.242770546E1,-1.690769196E-2,-5.840574205E-2,-7.384824753E-2
2.244672041E1,-2.971839905E-2,-4.867500067E-2,-5.272197723E-2
2.246573536E1,-3.117561340E-2,-3.539004922E-2,-5.403935909E-2
2.248475031E1,-2.693271637E-2,-2.619504929E-2,-8.201694489E-2
2.250376531E1,7.126808167E-3,-7.012635469E-3,-8.638095856E-2
2.252278025E1,-4.405403137E-2,-8.605897427E-3,-6.911849976E-2
2.254179520E1,-3.483581543E-2,-3.521881998E-2,-4.404401779E-2
2.256081015E1,1.770496368E-2,-4.792219400E-2,-7.659852505E-2
2.257982510E1,7.791519165E-3,-2.662095428E-2,-7.833874226E-2
2.259884005E1,-4.990959167E-2,-8.904367685E-3,-6.821906567E-2
2.261785499E1,-4.019641876E-2,-3.775161505E-2,-6.045281887E-2
2.263686994E1,-1.935958862E-4,-7.756520808E-2,-7.554721832E-2
2.265588489E1,-1.765918732E-2,-7.646667957E-2,-1.117948294E-1
2.267489984E1,-9.834289551E-3,-5.899606645E-2,-1.084314585E-1
2.269391484E1,-1.068782806E-2,-4.943785071E-2,-7.891976833E-2
2.271292978E1,-2.221488953E-2,-3.104569018E-2,-5.036222935E-2
2.273194473E1,-3.313541412E-2,-2.885460854E-3,-3.591787815E-2
2.275095968E1,-3.837108612E-2,-5.397319794E-3,-5.043077469E-2
2.276997463E1,-2.210807800E-2,-4.950240254E-2,-5.147850513E-2
2.278898958E1,-2.907085419E-2,-7.015836239E-2,-5.985665321E-2
2.280800452E1,-1.676273346E-2,-5.137501657E-2,-6.524968147E-2
2.282701947E1,-1.396751404E-2,-1.527255774E-2,-7.421648502E-2
2.284603447E1,-3.659152985E-2,-9.025692940E-3,-9.856772423E-2
2.286504942E1,-2.158451080E-2,-3.022305667E-2,-1.035798788E-1
2.288406437E1,-1.651668549E-2,-4.108551145E-2,-1.175849438E-1
2.290307932E1,-1.113796234E-2,-2.882871032E-2,-9.507870674E-2
2.292209426E1,-1.605510712E-2,-2.047663927E-2,-7.714688778E-2
2.294110921E1,-2.794170380E-2,-1.567025483E-2,-5.846011639E-2
2.296012416E1,-2.915477753E-2,-2.810120583E-2,-6.530833244E-2
2.297913911E1,-1.984214783E-2,-3.393325210E-2,-8.555138111E-2
2.299815411E1,-2.584838867E-2,-4.959288239E-2,-9.217107296E-2
2.301716906E1,-2.067661285E-2,-4.450759292E-2,-8.266091347E-2
2.303618400E1,-1.863193512E-2,-2.428561449E-2,-6.725907326E-2
2.305519895E1,-1.833724976E-2,-2.003550529E-3,-6.113576889E-2
2.307421390E1,-3.313636780E-2,-9.941935539E-3,-8.071041107E-2
2.309322885E1,-2.739906311E-2,-3.630858660E-2,-1.039745808E-1
2.311224380E1,-2.199459076E-2,-4.526205361E-2,-8.917951584E-2
2.313125874E1,-1.138305664E-2,-1.782873273E-2,-7.927346230E-2
2.315027374E1,-2.058410645E-2,-8.515059948E-3,-8.388185501E-2
2.316928869E1,-2.170181274E-2,-3.909993172E-2,-6.933081150E-2
2.318830364E1,-2.178096771E-2,-3.713095188E-2,-7.362592220E-2
2.320731859E1,-1.920986176E-2,-2.613756061E-2,-7.391297817E-2
2.322633354E1,-2.432346344E-2,-1.162785292E-2,-7.793593407E-2
2.324534848E1,-3.028297424E-2,-2.534526587E-2,-8.805036545E-2
2.326436348E1,-2.037811279E-2,-4.188874364E-2,-8.375370502E-2
2.328337843E1,-2.358150482E-2,-3.751572967E-2,-8.181965351E-2
2.330239338E1,-4.234027863E-2,-2.994269133E-2,-6.986165047E-2
2.332140833E1,-4.317569733E-2,-3.882187605E-2,-5.785906315E-2
2.334042328E1,1.103973389E-2,-6.168325245E-2,-7.545089722E-2
2.335943822E1,1.131057739E-2,-5.247139931E-2,-8.184444904E-2
2.337845322E1,-5.471229553E-2,-3.186231852E-2,-3.907668591E-2
2.339746817E1,-3.843975067E-2,-4.043045640E-2,-3.038096428E-2
2.341648312E1,-1.494598389E-2,-6.696683168E-2,-2.931189537E-2
2.343549807E1,-2.833843231E-2,-6.663000584E-2,-5.816674232E-2
2.345451301E1,-4.259777069E-2,-2.771046758E-2,-9.564673901E-2
2.347352796E1,-4.521751404E-2,-3.413826227E-3,-7.030808926E-2
2.349254291E1,-3.520774841E-2,-3.191551566E-2,-2.232146263E-2
2.351155791E1,-2.086925507E-2,-8.287367225E-2,-1.029205322E-2
2.353057286E1,-3.759384155E-3,-1.135198921E-1,-4.402732849E-2
2.354958781E1,-2.361392975E-2,-7.377691567E-2,-5.838024616E-2
2.356860275E1,-5.574226379E-2,-4.702359438E-2,-4.990315437E-2
2.358761770E1,-2.881908417E-2,-4.604154825E-2,-2.100312710E-2
2.360663265E1,-1.663303375E-2,-3.796488047E-2,-3.319036961E-2
2.362564765E1,-3.095340729E-2,-2.467212081E-2,-6.852281094E-2
2.364466260E1,-2.226734161E-2,-1.774430275E-2,-7.959806919E-2
2.366367755E1,-2.708530426E-2,-3.450742364E-2,-6.234705448E-2
2.368269249E1,-4.327583313E-2,-3.091421723E-2,-4.012835026E-2
2.370170744E1,-3.764915466E-2,2.628564835E-4,-4.686880112E-2
2.372072244E1,-2.120399475E-2,-2.466499805E-3,-4.721415043E-2
2.373973739E1,-2.205276489E-2,-2.691684663E-2,-5.706167221E-2
2.375875234E1,-2.703762054E-2,-3.770299256E-2,-4.483580589E-2
2.377776729E1,-2.915573120E-2,-1.867327094E-2,-6.625723839E-2
2.379678223E1,-3.045368195E-2,-1.225537062E-2,-8.046030998E-2
2.381579723E1,-2.126693726E-2,-3.734409809E-2,-6.311094761E-2
2.383481218E1,-2.361392975E-2,-6.602025032E-2,-6.078767776E-2
2.385382713E1,-3.029251099E-2,-7.543054223E-2,-7.248008251E-2
2.387284208E1,-2.657699585E-2,-5.893059075E-2,-9.476447105E-2
2.389185702E1,-3.414058685E-2,-4.757970572E-2,-8.871233463E-2
2.391087197E1,-3.274822235E-2,-2.940309048E-2,-7.363271713E-2
2.392988697E1,-2.697467804E-2,-3.790965676E-2,-8.166837692E-2
2.394890192E1,-1.402378082E-2,-4.756671190E-2,-8.844316006E-2
2.396791687E1,-2.149200439E-2,-5.604289472E-2,-7.442581654E-2
2.398693182E1,-1.862430573E-2,-5.790232122E-2,-7.170009613E-2
2.400594682E1,-8.629798889E-3,-3.862136602E-2,-6.432473660E-2
2.402496176E1,-2.957820892E-2,-3.363533318E-2,-8.119893074E-2
2.404397671E1,-2.902317047E-2,-3.452798724E-2,-9.048140049E-2
2.406299166E1,-1.164150238E-2,-4.575741291E-2,-8.339762688E-2
2.408200661E1,-3.645324707E-2,-5.946926773E-2,-4.390847683E-2
2.410102156E1,-3.008460999E-2,-3.229020536E-2,-2.735853195E-2
2.412003656E1,5.743980408E-3,-3.222320974E-2,-5.272042751E-2
2.413905150E1,-1.918506622E-2,-4.074412584E-2,-3.957724571E-2
2.415806645E1,-4.155063629E-2,-4.510298371E-2,-2.530384064E-2
2.417708140E1,-1.077556610E-2,-5.327233672E-2,-4.471457005E-2
2.419609635E1,-3.360748291E-2,-5.104355514E-2,-7.533681393E-2
2.421511135E1,-4.226112366E-2,-3.291338682E-2,-7.349836826E-2
2.423412630E1,-2.047061920E-2,-4.542759061E-2,-4.362797737E-2
2.425314124E1,-2.516841888E-2,-5.883315206E-2,-2.167606354E-2
2.427215619E1,-3.241252899E-2,-4.933695495E-2,-4.115891457E-2
2.429117119E1,-2.221488953E-2,-4.848879576E-2,-7.043492794E-2
2.431018614E1,-2.302455902E-2,-4.958952963E-2,-6.252861023E-2
2.432920109E1,-3.048419952E-2,-3.334416449E-2,-4.779088497E-2
2.434821604E1,-1.249122620E-2,-6.329649687E-2,-6.223034859E-2
2.436723098E1,-1.134109497E-2,-5.458734930E-2,-7.592189312E-2
2.438624598E1,-4.297161102E-2,-2.849143744E-2,-6.284749508E-2
2.440526093E1,-2.937602997E-2,-3.238773346E-2,-7.474982738E-2
2.442427588E1,-1.194953918E-2,-5.906686187E-2,-7.870090008E-2
2.444329083E1,-2.787971497E-2,-4.462181032E-2,-7.484376431E-2
2.446230583E1,-2.289199829E-2,-3.697715700E-2,-6.579661369E-2
2.448132078E1,-1.299571991E-2,-4.072257876E-2,-6.693542004E-2
2.450033572E1,-2.691364288E-2,-5.900496244E-2,-8.332061768E-2
2.451935067E1,-2.925300598E-2,-5.621737242E-2,-9.641993046E-2
2.453836562E1,-2.480316162E-2,-4.098954797E-2,-7.814610004E-2
2.455738062E1,-3.400039673E-2,-3.974901140E-2,-4.491436481E-2
2.457639557E1,-2.996253967E-2,-3.670287132E-2,-4.681265354E-2
2.459541051E1,-2.173328400E-2,-3.288412094E-2,-5.182886124E-2
2.461442546E1,-1.766395569E-2,-3.726716340E-2,-5.372142792E-2
2.463344046E1,-1.478862762E-2,-5.336277187E-2,-6.045603752E-2
2.465245541E1,-2.702522278E-2,-5.982862413E-2,-5.460894108E-2
2.467147036E1,-2.940464020E-2,-5.037592351E-2,-7.046854496E-2
2.469048531E1,-2.500724792E-2,-2.774074674E-2,-7.802057266E-2
2.470950025E1,-2.945232391E-2,-2.848646045E-2,-7.089114189E-2
2.472851525E1,-3.095722198E-2,-2.233625948E-2,-5.149590969E-2
2.474753020E1,-2.699661255E-2,-3.144602478E-2,-4.764330387E-2
2.476654515E1,-1.716041565E-2,-4.191602767E-2,-5.844449997E-2
2.478556010E1,-2.703952789E-2,-4.029805958E-2,-5.763876438E-2
2.480457510E1,-3.195571899E-2,-9.895116091E-3,-7.396304607E-2
2.482359005E1,-3.160953522E-2,-3.474639356E-2,-5.829250813E-2
2.484260499E1,-1.561164856E-2,-3.963661194E-2,-6.339108944E-2
2.486161994E1,-3.603076935E-2,-2.362363040E-2,-6.436049938E-2
2.488063494E1,-4.515361786E-2,-1.758217812E-2,-6.993389130E-2
2.489964989E1,-1.803398132E-3,-1.282978058E-2,-5.622768402E-2
2.491866484E1,9.222030640E-4,-3.404045105E-2,-5.139207840E-2
2.493767978E1,-2.700424194E-2,-1.517939568E-2,-3.524124622E-2
2.495669478E1,-4.598903656E-2,-9.177625179E-4,-6.641304493E-2
2.497570973E1,-2.103519440E-2,-5.183500051E-2,-8.388710022E-2
2.499472468E1,-4.120159149E-2,-5.850157142E-2,-9.854900837E-2
2.501373963E1,-4.017257690E-2,-3.970779479E-2,-8.231055737E-2
2.503275463E1,-2.419853210E-2,-3.487381339E-2,-5.935621262E-2
2.505176958E1,-1.000976562E-2,-2.265736461E-2,-4.245257378E-2
2.507078452E1,-2.869701385E-2,-2.849566936E-2,-5.264675617E-2
2.508979947E1,-4.306221008E-2,-4.876311123E-2,-7.320332527E-2
2.510881447E1,-2.011013031E-2,-5.205877125E-2,-7.155799866E-2
2.512782942E1,-1.165962219E-2,-4.526780546E-2,-5.723404884E-2
2.514684437E1,-1.604270935E-2,-5.313655734E-2,-6.417202950E-2
2.516585937E1,-1.260852814E-2,-5.240590870E-2,-5.530714989E-2
2.518487432E1,-2.288150787E-2,-2.545000613E-2,-7.952332497E-2
2.520388926E1,-3.455448151E-2,-1.073470712E-2,-7.634699345E-2
2.522290421E1,-4.702854156E-2,-2.367323637E-2,-8.111214638E-2
2.524191921E1,-3.140258789E-2,-3.848840296E-2,-6.254827976E-2
2.526093416E1,-7.370948792E-3,-3.608658910E-2,-4.601752758E-2
2.527994911E1,-1.087284088E-2,-2.379597723E-2,-3.677141666E-2
2.529896406E1,-2.479457855E-2,-2.920562029E-2,-3.498804569E-2
2.531797906E1,-4.402828217E-2,-3.304600716E-2,-4.079449177E-2
2.533699400E1,-4.352855682E-2,-2.797654271E-2,-2.968013287E-2
2.535600895E1,-3.997993469E-2,-1.519811153E-2,-2.301335335E-2
2.537502390E1,-2.742385864E-2,-2.668991685E-2,-3.525137901E-2
2.539403890E1,-2.518367767E-2,-2.036415040E-2,-4.703223705E-2
2.541305385E1,-4.382801056E-2,-2.885100245E-2,-6.026196480E-2
2.543206880E1,-4.291534424E-2,-4.311761260E-2,-5.078017712E-2
2.545108380E1,-3.144741058E-2,-3.430019319E-2,-5.353069305E-2
2.547009874E1,-3.509902954E-2,-2.056932449E-2,-4.382860661E-2
2.548911369E1,-4.863548279E-2,1.011982560E-3,-5.470788479E-2
2.550812869E1,-3.730487823E-2,-1.504579186E-2,-4.339349270E-2
2.552714364E1,-2.057838440E-2,-2.762252092E-2,-3.361856937E-2
2.554615859E1,-2.454566956E-2,-3.455121815E-2,-1.765465736E-2
2.556517354E1,-2.243041992E-2,-2.420461178E-2,-1.008284092E-2
2.558418854E1,-2.199745178E-2,-3.099164367E-2,-1.941895485E-2
2.560320348E1,-3.879356384E-2,-1.897285879E-2,-4.292166233E-2
2.562221843E1,-5.098152161E-2,-2.059631050E-2,-4.205989838E-2
2.564123338E1,-3.186035156E-2,-2.320775390E-2,-2.683687210E-2
2.566024838E1,1.813316345E-2,-1.482155919E-2,-3.828048706E-2
2.567926333E1,1.574707031E-2,-4.082186520E-2,-4.351365566E-2
2.569827828E1,-1.936626434E-2,-6.846423447E-2,-2.887904644E-2
2.571729328E1,-1.256465912E-2,-6.331287324E-2,-5.151379108E-2
2.573630822E1,-3.570747375E-2,-6.019973755E-2,-8.970308304E-2
2.575532317E1,-4.397010803E-2,-3.895692527E-2,-9.668493271E-2
2.577433817E1,-2.036762238E-2,-3.549273312E-2,-6.424832344E-2
2.579335312E1,-1.089191437E-2,-4.486151040E-2,-6.921207905E-2
2.581236807E1,-3.099536896E-2,-3.772883117E-2,-8.077788353E-2
2.583138307E1,-3.866481781E-2,-5.209279060E-2,-8.230876923E-2
2.585039801E1,-3.076553345E-2,-6.292688847E-2,-6.564342976E-2
2.586941296E1,-1.618003845E-2,-5.434814095E-2,-6.738817692E-2
2.588842791E1,-1.452732086E-2,-5.450548232E-2,-7.236552238E-2
2.590744291E1,-3.044509888E-2,-6.814070046E-2,-8.860719204E-2
2.592645786E1,-5.021953583E-2,-5.317275226E-2,-7.599604130E-2
2.594547281E1,-1.411151886E-2,-3.981421888E-2,-8.207166195E-2
2.596448781E1,-4.482269287E-4,-6.936714053E-2,-7.430601120E-2
2.598350275E1,-2.957534790E-2,-8.551622927E-2,-8.232772350E-2
2.600251770E1,-5.087566376E-2,-6.509892642E-2,-8.366179466E-2
2.602153270E1,-3.980350494E-2,-5.508825183E-2,-7.040333748E-2
2.604054765E1,-1.686286926E-2,-6.564965844E-2,-4.627573490E-2
2.605956260E1,-1.197242737E-2,-5.504509807E-2,-4.137921333E-2
2.607857760E1,-3.415298462E-2,-4.243700206E-2,-3.591012955E-2
2.609759255E1,-2.990818024E-2,-3.422321379E-2,-3.342354298E-2
2.611660749E1,-1.409626007E-2,-3.862915933E-2,-5.779075623E-2
2.613562244E1,-2.180004120E-2,-4.631450772E-2,-6.651842594E-2
2.615463744E1,-3.445625305E-2,-3.230364621E-2,-5.825686455E-2
2.617365239E1,-3.872585297E-2,-3.597314656E-2,-4.655754566E-2
2.619266734E1,-2.089214325E-2,-2.930867672E-2,-2.571642399E-2
2.621168234E1,-2.670860291E-2,-1.973786950E-2,-2.838492393E-2
2.623069728E1,-3.220558167E-2,-6.352469325E-3,-4.200077057E-2
2.624971223E1,-3.912639618E-2,-2.838650346E-2,-6.423580647E-2
2.626872723E1,-2.993011475E-2,-6.939038634E-2,-4.743647575E-2
2.628774218E1,-1.698589325E-2,-7.439088821E-2,-2.834606171E-2
2.630675713E1,-1.482486725E-2,-6.246660650E-2,-4.214239120E-2
2.632577213E1,-3.346729279E-2,-5.139969289E-2,-6.642031670E-2
2.634478708E1,-5.947685242E-2,-6.455464661E-2,-5.095088482E-2
2.636380203E1,-4.968357086E-2,-6.859987974E-2,-2.944421768E-2
2.638281702E1,1.526069641E-2,-5.347834527E-2,-3.512024879E-2
2.640183197E1,-1.316070557E-4,-5.856116116E-2,-6.475710869E-2
2.642084692E1,-4.116058350E-2,-4.659050703E-2,-8.582925797E-2
2.643986187E1,-3.372287750E-2,-6.340575218E-2,-7.314097881E-2
2.645887687E1,-2.619647980E-2,-7.355153561E-2,-7.505726814E-2
2.647789182E1,-3.827953339E-2,-5.805301666E-2,-8.536076546E-2
2.649690682E1,-2.849102020E-2,-5.392454565E-2,-8.376348019E-2
2.651592176E1,-3.380393982E-2,-6.319804490E-2,-5.630910397E-2
2.653493671E1,-3.338241577E-2,-5.480214953E-2,-5.362451077E-2
2.655395171E1,-1.737308502E-2,-3.997653723E-2,-6.546688080E-2
2.657296666E1,-2.435874939E-2,-2.191922069E-2,-7.010161877E-2
2.659198161E1,-3.194141388E-2,-1.431246102E-2,-4.851496220E-2
2.661099661E1,-3.057193756E-2,-1.119175553E-2,-6.971502304E-2
2.663001156E1,-3.802585602E-2,-1.967397332E-2,-9.860217571E-2
2.664902650E1,-1.632690430E-2,-1.915159822E-2,-8.965992928E-2
2.666804150E1,1.312160492E-2,-5.622817576E-2,-7.347619534E-2
2.668705645E1,8.042335510E-3,-6.920826435E-2,-9.871542454E-2
2.670607140E1,-2.654361725E-2,-3.464503586E-2,-1.240603924E-1
2.672508640E1,-6.725120544E-2,-1.391492784E-2,-9.594762325E-2
2.674410135E1,-3.416633606E-2,-3.256441653E-2,-7.687675953E-2
2.676311635E1,-1.547145844E-2,-5.356810987E-2,-9.828877449E-2
2.678213130E1,-1.365280151E-2,-4.417809844E-2,-1.024802923E-1
2.680114624E1,-2.591705322E-2,-2.590754628E-2,-6.718850136E-2
2.682016124E1,-3.538608551E-2,-6.976753473E-3,-4.696691036E-2
2.683917619E1,-2.461433411E-2,-8.386909962E-3,-3.974533081E-2
2.685819114E1,-2.481079102E-2,-3.394487500E-2,-5.795919895E-2
2.687720614E1,-2.795314789E-2,-4.205048084E-2,-8.213925362E-2
2.689622109E1,-2.308177948E-2,-4.133582115E-2,-6.964623928E-2
2.691523609E1,-2.433967590E-2,-4.249003530E-2,-5.972552299E-2
2.693425104E1,-3.075695038E-2,-4.484649003E-2,-6.852018833E-2
2.695326598E1,-3.047752380E-2,-3.723469377E-2,-8.548820019E-2
2.697228098E1,-2.741718292E-2,-2.646948397E-2,-8.070540428E-2
2.699129593E1,-3.456687927E-2,-2.806083858E-2,-7.643711567E-2
2.701031093E1,-1.774597168E-2,-3.843569756E-2,-6.744861603E-2
2.702932588E1,-5.374908447E-3,-4.225960374E-2,-6.001865864E-2
2.704834083E1,-5.067539215E-2,-2.941700816E-2,-5.121219158E-2
2.706735583E1,-5.633354187E-2,-1.172444224E-2,-3.160512447E-2
2.708637078E1,4.043579102E-4,-5.217601359E-2,-4.474890232E-2
2.710538572E1,9.160041809E-3,-6.416575611E-2,-7.234752178E-2
2.712440072E1,-3.057003021E-2,-3.800766170E-2,-5.991256237E-2
2.714341567E1,-4.081058502E-2,-1.550178230E-2,-3.633916378E-2
2.716243067E1,-4.067993164E-2,-4.193395376E-2,-4.655730724E-2
2.718144562E1,-2.311038971E-2,-4.987716675E-2,-6.852900982E-2
2.720046062E1,-4.278182983E-3,-5.139771104E-2,-6.912624836E-2
2.721947557E1,-3.347110748E-2,-3.840720654E-2,-4.718470573E-2
2.723849051E1,-4.238891602E-2,-2.214881778E-2,-4.774653912E-2
2.725750551E1,-1.424407959E-2,-2.950742841E-2,-5.612254143E-2
2.727652046E1,-1.770973206E-2,-3.745971620E-2,-4.827606678E-2
2.729553546E1,-4.571342468E-2,-2.654537559E-2,-5.380690098E-2
2.731455041E1,-2.368927002E-2,-2.312481403E-2,-5.838716030E-2
2.733356536E1,-7.684707642E-3,-3.812268376E-2,-6.474959850E-2
2.735258036E1,-3.396034241E-2,-1.534467936E-2,-7.356953621E-2
2.737159531E1,-2.996444702E-2,-3.308010101E-2,-4.718852043E-2
2.739061031E1,-3.308105469E-2,-4.888588190E-2,-5.752992630E-2
2.740962525E1,-2.487468719E-2,-3.526799381E-2,-6.230556965E-2
2.742864025E1,-2.149105072E-2,-1.693421602E-2,-5.992853642E-2
2.744765520E1,-3.599929810E-2,-4.334914684E-2,-5.319666862E-2
2.746667015E1,-2.226161957E-2,-5.571405590E-2,-4.913604259E-2
2.748568515E1,-1.260852814E-2,-5.338931084E-2,-5.315673351E-2
2.750470010E1,-3.486633301E-2,-2.341233194E-2,-6.176638603E-2
2.752371510E1,-4.033660889E-2,-1.903666556E-2,-4.543066025E-2
2.754273005E1,-2.185344696E-2,-3.372400999E-2,-6.038296223E-2
2.756174499E1,-5.783271790E-2,-5.070665479E-2,-3.240406513E-2
2.758075999E1,-2.818870544E-2,-5.398631096E-2,-1.418590546E-5
2.759977494E1,2.998161316E-2,-4.195216298E-2,-6.783843040E-2
2.761878994E1,-7.076263428E-4,-4.388494790E-2,-1.320052147E-1
2.763780489E1,-4.248332977E-2,-3.604786098E-2,-1.067326069E-1
2.765681989E1,-2.981853485E-2,-3.547312319E-2,-7.852053642E-2
2.767583484E1,-1.325798035E-2,-2.551412582E-2,-9.606385231E-2
2.769484979E1,-1.784420013E-2,-3.630287945E-2,-1.125639677E-1
2.771386479E1,-3.261470795E-2,-5.527682602E-2,-1.507180929E-1
2.773287973E1,-5.364418030E-2,-7.386483252E-2,-1.125406027E-1
2.775189473E1,-1.584911346E-2,-6.749032438E-2,-5.835461617E-2
2.777090968E1,2.229595184E-2,-3.843170404E-2,-8.877646923E-2
2.778992468E1,-7.234573364E-3,-3.374221921E-2,-9.192860126E-2
2.780893963E1,-4.594135284E-2,-1.990422606E-2,-8.533930779E-2
2.782795463E1,-3.361415863E-2,-2.324667573E-2,-7.089555264E-2
2.784696958E1,-3.058719635E-2,-3.570358455E-2,-8.311831951E-2
2.786598453E1,-2.130317688E-2,-3.227971494E-2,-7.860255241E-2
2.788499952E1,-1.171493530E-2,-4.553824663E-2,-5.644428730E-2
2.790401452E1,-2.642536163E-2,-5.238148570E-2,-3.599011898E-2
2.792302947E1,-3.694248199E-2,-4.092858732E-2,-4.672145844E-2
2.794204442E1,-3.023719788E-2,-3.128691018E-2,-5.497360229E-2
2.796105942E1,-2.488517761E-2,-4.640056193E-2,-7.164502144E-2
2.798007437E1,-1.580142975E-2,-3.998734057E-2,-7.794058323E-2
2.799908937E1,-6.338119507E-3,-3.705534339E-2,-5.174291134E-2
2.801810432E1,-3.623104095E-2,-1.482783258E-2,-3.499376774E-2
2.803711932E1,-4.208564758E-2,-3.953129053E-4,-6.976306438E-2
2.805613426E1,-2.149105072E-2,-2.261784673E-2,-9.791421890E-2
2.807514926E1,-1.963138580E-2,-5.426898599E-2,-6.410551071E-2
2.809416421E1,-2.516746521E-2,-5.407482386E-2,-4.003882408E-2
2.811317921E1,-3.004169464E-2,-2.837719023E-2,-4.817497730E-2
2.813219416E1,-3.030109406E-2,-1.581189036E-2,-7.637202740E-2
2.815120916E1,-2.690219879E-2,-1.944071054E-2,-7.148444653E-2
2.817022411E1,-2.871513367E-2,-4.710614681E-2,-6.429743767E-2
2.818923911E1,-3.113079071E-2,-3.977794945E-2,-5.724537373E-2
2.820825406E1,-2.355098724E-2,-3.055898845E-2,-5.472028255E-2
2.822726906E1,-2.364158630E-2,-2.710843086E-2,-5.492758751E-2
2.824628400E1,-1.467227936E-2,-4.558800161E-2,-5.465936661E-2
2.826529900E1,-1.478576660E-2,-6.766232848E-2,-6.247830391E-2
2.828431395E1,-2.989768982E-2,-6.199491024E-2,-6.223976612E-2
2.830332890E1,-3.921413422E-2,-4.173214734E-2,-5.613899231E-2
2.832234390E1,-3.395080566E-2,-3.293935955E-2,-5.607318878E-2
2.834135890E1,-2.565193176E-2,-3.910118341E-2,-6.181311607E-2
2.836037385E1,-2.154064178E-2,-6.278066337E-2,-6.516253948E-2
2.837938885E1,-1.688957214E-2,-8.403573930E-2,-5.539190769E-2
2.839840380E1,-1.449298859E-2,-7.356657088E-2,-7.123541832E-2
2.841741880E1,-4.586982727E-2,-2.898690104E-2,-7.300078869E-2
2.843643374E1,-2.685928345E-2,-1.048213243E-2,-5.638968945E-2
2.845544874E1,6.036758423E-3,-4.998244345E-2,-4.504692554E-2
2.847446369E1,-1.867198944E-2,-8.350653946E-2,-4.134130478E-2
2.849347869E1,-4.056358337E-2,-5.719113350E-2,-5.515217781E-2
2.851249364E1,-2.359962463E-2,-5.049546063E-2,-6.907546520E-2
2.853150864E1,-2.862262726E-2,-6.148944795E-2,-6.934404373E-2
2.855052359E1,-2.580928802E-2,-5.420345068E-2,-6.743562222E-2
2.856953859E1,-1.887798309E-2,-4.753194749E-2,-6.083142757E-2
2.858855354E1,-3.236007690E-2,-4.548831284E-2,-5.552017689E-2
2.860756854E1,-2.375411987E-2,-4.425910115E-2,-5.032241344E-2
2.862658354E1,-2.920055389E-2,-5.937673151E-2,-5.003619194E-2
2.864559848E1,-3.433227539E-2,-6.376709044E-2,-6.228840351E-2
2.866461348E1,-1.357460022E-2,-4.226920009E-2,-7.240629196E-2
2.868362843E1,-5.155563354E-3,-5.483329296E-2,-6.538236141E-2
2.870264343E1,-3.431224823E-2,-4.151555896E-2,-7.176697254E-2
2.872165838E1,-2.882480621E-2,-2.199095488E-2,-7.695853710E-2
2.874067338E1,-2.618694305E-2,-1.972924173E-2,-8.249175549E-2
2.875968833E1,-1.946163177E-2,-2.312128246E-2,-8.100140095E-2
2.877870333E1,-1.874160767E-2,-5.016699433E-2,-7.177269459E-2
2.879771828E1,-2.589511871E-2,-6.565174460E-2,-5.869698524E-2
2.881673328E1,-2.264118195E-2,-5.379104614E-2,-6.171536446E-2
2.883574828E1,-2.432727814E-2,-3.556372225E-2,-6.655621529E-2
2.885476322E1,-1.239871979E-2,-6.116117537E-2,-8.213090897E-2
2.887377822E1,-2.447700500E-2,-5.575078726E-2,-6.049025059E-2
2.889279317E1,-3.069305420E-2,-4.106502235E-2,-5.236661434E-2
2.891180817E1,-1.985454559E-2,-3.456574678E-2,-7.179307938E-2
2.893082317E1,-5.359649658E-3,-5.932681262E-2,-7.829618454E-2
2.894983812E1,-2.842998505E-2,-7.617257535E-2,-7.034730911E-2
2.896885312E1,-3.004646301E-2,-5.206598341E-2,-6.045770645E-2
2.898786807E1,-2.224063873E-2,-1.273690164E-2,-5.851447582E-2
2.900688307E1,-1.781177521E-2,-3.627519310E-2,-5.807828903E-2
2.902589807E1,-1.998901367E-2,-5.675972998E-2,-5.606961250E-2
2.904491301E1,-2.699184418E-2,-3.802335262E-2,-6.323349476E-2
2.906392801E1,-3.165435791E-2,-3.087499738E-2,-7.010531425E-2
2.908294296E1,-1.598834991E-2,-3.252576292E-2,-5.978465080E-2
2.910195796E1,-3.172397614E-2,-2.804192901E-2,-5.082452297E-2
2.912097291E1,-4.773902893E-2,-2.401600778E-2,-4.256391525E-2
2.913998791E1,-4.250526428E-3,-2.122470737E-2,-4.946029186E-2
2.915900291E1,1.400470734E-2,-3.599780798E-2,-6.292819977E-2
2.917801786E1,-3.330135345E-2,-4.307846725E-2,-3.752362728E-2
2.919703286E1,-3.663825989E-2,-2.899564803E-2,-3.083693981E-2
2.921604786E1,-2.750587463E-2,-2.595183253E-2,-5.724966526E-2
2.923506281E1,-4.165935516E-2,-2.328069508E-2,-8.415699005E-2
2.925407781E1,-2.072715759E-2,-1.837325096E-2,-8.620321751E-2
2.927309275E1,-2.182388306E-2,-1.933638752E-2,-7.554924488E-2
2.929210775E1,-2.790451050E-2,-1.619581878E-2,-6.242454052E-2
2.931112275E1,-3.546714783E-2,-2.855211496E-2,-4.710769653E-2
2.933013770E1,-2.482891083E-2,-4.435098171E-2,-4.683816433E-2
2.934915270E1,-1.948833466E-2,-4.228140414E-2,-6.595015526E-2
2.936816765E1,-2.185821533E-3,-5.153016746E-2,-5.205810070E-2
2.938718265E1,-2.347373962E-2,-3.745371103E-2,-5.258023739E-2
2.940619765E1,-1.893711090E-2,-1.927185059E-2,-6.674420834E-2
2.942521260E1,-2.134704590E-2,-2.528952062E-2,-8.096873760E-2
2.944422760E1,-3.962135315E-2,-4.030047357E-2,-8.301305771E-2
2.946324260E1,-2.809047699E-2,-4.347355664E-2,-6.254780293E-2
2.948225755E1,-5.784988403E-3,-3.560149670E-2,-5.878520012E-2
2.950127255E1,-2.641868591E-2,-3.178682923E-2,-4.487407207E-2
2.952028749E1,-3.877639771E-2,-3.761129081E-2,-5.595314503E-2
2.953930249E1,-2.370929718E-2,-4.391802847E-2,-5.779731274E-2
2.955831749E1,-2.649116516E-2,-4.119655490E-2,-5.689048767E-2
2.957733244E1,-2.929401398E-2,-1.832635701E-2,-4.004859924E-2
2.959634744E1,-3.164100647E-2,-2.644917369E-2,-2.207684517E-2
2.961536244E1,-1.886177063E-2,-4.780535400E-2,-2.420592308E-2
2.963437739E1,-3.121948242E-2,-4.144138098E-2,-3.856039047E-2
2.965339239E1,-3.142166138E-2,-2.007603645E-2,-6.109273434E-2
2.967240734E1,-3.203964233E-2,-2.974839509E-2,-3.879773617E-2
2.969142234E1,-1.639556885E-2,-5.051282048E-2,-3.993761539E-2
2.971043734E1,-1.293754578E-2,-5.356484652E-2,-4.369413853E-2
2.972945228E1,-2.076148987E-2,-3.767646849E-2,-4.518759251E-2
2.974846728E1,-2.688503265E-2,-1.186148822E-2,-6.446874142E-2
2.976748229E1,-3.291511536E-2,-2.063742280E-2,-6.057393551E-2
2.978649723E1,-2.986335754E-2,-3.672233224E-2,-5.008339882E-2
2.980551223E1,-1.259708405E-2,-5.122621357E-2,-6.076145172E-2
2.982452723E1,-5.809783936E-3,-2.122800052E-2,-8.707582951E-2
2.984354218E1,-3.383636475E-2,-6.039589643E-3,-8.980596066E-2
2.986255718E1,-4.917716980E-2,-3.331525624E-2,-8.237636089E-2
2.988157213E1,-9.346008301E-5,-5.907396972E-2,-7.376098633E-2
2.990058713E1,1.794147491E-2,-4.949206114E-2,-6.269431114E-2
2.991960213E1,-3.643131256E-2,-1.565662026E-2,-5.191850662E-2
2.993861708E1,-3.537559509E-2,-3.059534729E-2,-6.539201736E-2
2.995763208E1,-1.840400696E-2,-6.585496664E-2,-9.792065620E-2
2.997664708E1,-1.841640472E-2,-6.175127625E-2,-8.993482590E-2
2.999566202E1,-1.957988739E-2,-3.304977715E-2,-8.625459671E-2
3.001467702E1,-2.494239807E-2,-4.380947351E-2,-7.610678673E-2
3.003369202E1,-2.844524384E-2,-5.674056709E-2,-6.639468670E-2
3.005270697E1,-2.591514587E-2,-6.903119385E-2,-6.563806534E-2
3.007172197E1,-2.028560638E-2,-6.303586066E-2,-7.037341595E-2
3.009073692E1,-1.605415344E-2,-4.140740633E-2,-8.377122879E-2
3.010975192E1,-5.297660828E-3,-2.926813066E-2,-8.861994743E-2
3.012876692E1,-2.315330505E-2,-3.521199524E-2,-8.905518055E-2
3.014778192E1,-2.102565765E-2,-4.035671055E-2,-8.648395538E-2
3.016679687E1,-2.454948425E-2,-6.368084252E-2,-7.692921162E-2
3.018581187E1,-2.886199951E-2,-5.288492143E-2,-8.389592171E-2
3.020482682E1,-2.360343933E-2,-4.453399777E-2,-7.644391060E-2
3.022384182E1,-9.821891785E-3,-6.906679273E-2,-6.586647034E-2
3.024285682E1,-1.505947113E-2,-7.470715046E-2,-6.651508808E-2
3.026187176E1,-2.439022064E-2,-6.838190556E-2,-5.154061317E-2
3.028088676E1,-2.374649048E-2,-3.861927986E-2,-4.659867287E-2
3.029990176E1,-2.249526978E-2,-2.448399365E-2,-4.728090763E-2
3.031891671E1,-2.539825439E-2,-2.201159298E-2,-3.711187840E-2
3.033793171E1,-2.099132538E-2,-5.018335581E-2,-3.695285320E-2
3.035694671E1,-2.115345001E-2,-6.407484412E-2,-5.621790886E-2
3.037596166E1,-1.614379883E-2,-4.619634151E-2,-7.056701183E-2
3.039497666E1,-3.156375885E-2,-4.101574421E-2,-6.842851639E-2
3.041399166E1,-4.309082031E-2,-3.830462694E-2,-5.192017555E-2
3.043300661E1,-2.915191650E-2,-3.314873576E-2,-5.014789104E-2
3.045202161E1,-1.885890961E-2,-1.191364229E-2,-4.304838181E-2
3.047103661E1,-1.451873779E-2,-1.354660094E-2,-5.229783058E-2
3.049005161E1,-1.852226257E-2,-3.344573081E-2,-5.093336105E-2
3.050906656E1,-3.587818146E-2,-2.003738284E-2,-4.969048500E-2
3.052808156E1,-4.482173920E-2,-2.012874186E-2,-5.844569206E-2
3.054709656E1,-2.949714661E-2,-3.445324302E-2,-6.249451637E-2
3.056611150E1,-2.583122253E-2,-3.034506738E-2,-8.519530296E-2
3.058512650E1,-2.572917938E-2,-3.344625235E-2,-7.801306248E-2
3.060414150E1,-3.853797913E-2,-4.945780337E-2,-5.161023140E-2
3.062315645E1,-1.801776886E-2,-5.087126791E-2,-4.827737808E-2
3.064217145E1,1.112270355E-2,-4.667444527E-2,-5.525457859E-2
3.066118645E1,-2.665424347E-2,-2.815112472E-2,-4.497539997E-2
3.068020140E1,-4.690933228E-2,-3.907288611E-2,-4.725265503E-2
3.069921640E1,-2.499866486E-2,-5.046473444E-2,-6.793344021E-2
3.071823140E1,-3.040695190E-2,-3.987671435E-2,-7.861816883E-2
3.073724635E1,-2.615547180E-2,-4.970800877E-2,-6.051731110E-2
3.075626135E1,-2.667140961E-2,-5.586543679E-2,-6.480383873E-2
3.077527635E1,-2.080440521E-2,-6.875866652E-2,-7.313966751E-2
3.079429135E1,-2.197933197E-2,-4.411660135E-2,-6.655132771E-2
3.081330630E1,-2.948379517E-2,-3.095419705E-2,-5.444395542E-2
3.083232130E1,-2.314090729E-2,-4.407644272E-2,-5.164897442E-2
3.085133630E1,-1.907539368E-2,-4.106079042E-2,-6.909084320E-2
3.087035124E1,-1.890754700E-2,-3.014065325E-2,-8.120119572E-2
3.088936624E1,-3.900051117E-2,-9.896054864E-3,-8.311116695E-2
3.090838124E1,-3.269672394E-2,-7.098734379E-3,-7.347214222E-2
3.092739624E1,-2.128124237E-2,-3.603212535E-2,-6.387031078E-2
3.094641119E1,-2.185630798E-2,-3.312906623E-2,-5.221807957E-2
3.096542619E1,-6.246566772E-3,-4.581502080E-2,-3.443968296E-2
3.098444119E1,-1.747798920E-2,-5.983768404E-2,-2.708005905E-2
3.100345614E1,-3.851127625E-2,-5.038905144E-2,-4.687464237E-2
3.102247114E1,-3.057289124E-2,-1.671837270E-2,-4.950714111E-2
3.104148614E1,-2.514839172E-2,1.058563590E-3,-3.695774078E-2
3.106050109E1,-1.838588715E-2,-2.708072960E-2,-2.203691006E-2
3.107951609E1,-3.292369843E-2,-3.670257330E-2,-4.643201828E-2
3.109853109E1,-2.861404419E-2,-2.080515027E-2,-4.481339455E-2
3.111754609E1,-1.943016052E-2,-1.732632518E-2,-5.269777775E-2
3.113656104E1,-6.360054016E-3,-2.401059866E-2,-4.177987576E-2
3.115557604E1,-3.807735443E-2,-4.457622766E-2,-3.372359276E-2
3.117459104E1,-4.194831848E-2,-5.629011989E-2,-4.265785217E-2
3.119360604E1,-2.811908722E-2,-7.765032351E-2,-4.547226429E-2
3.121262098E1,-1.065635681E-2,-5.762057006E-2,-4.963958263E-2
3.123163598E1,-1.135540009E-2,-1.581919193E-2,-5.373811722E-2
3.125065098E1,-2.931690216E-2,-2.109614015E-2,-6.754875183E-2
3.126966593E1,-4.016494751E-2,-6.380304694E-2,-5.294382572E-2
3.128868093E1,-1.915073395E-2,-6.245890260E-2,-2.633213997E-2
3.130769593E1,-1.686096191E-2,-2.933593094E-2,-2.548420429E-2
3.132671093E1,-2.059078217E-2,-2.944366634E-2,-4.945552349E-2
3.134572588E1,-2.019977570E-2,-3.716284037E-2,-7.744085789E-2
3.136474088E1,-4.922580719E-2,-3.653475642E-2,-5.849421024E-2
3.138375588E1,-3.613376617E-2,-2.611900866E-2,-3.473258018E-2
3.140277083E1,-4.396438599E-3,-2.622871101E-2,-3.887307644E-2
3.142178583E1,-8.481025696E-3,-2.886536717E-2,-4.913926125E-2
3.144080083E1,-3.880977631E-2,-4.391556978E-2,-6.536757946E-2
3.145981583E1,-3.352928162E-2,-6.968483329E-2,-6.738483906E-2
3.147883078E1,-3.966140747E-2,-7.690344751E-2,-7.222270966E-2
3.149784578E1,-2.488327026E-2,-5.706536770E-2,-6.360173225E-2
3.151686078E1,-1.134109497E-2,-3.329396248E-2,-4.658854008E-2
3.153587578E1,-2.457809448E-2,-1.114514470E-2,-2.472448349E-2
3.155489078E1,-3.031539917E-2,-2.368427813E-2,-4.939126968E-2
3.157390572E1,-2.769565582E-2,-5.174256861E-2,-6.787574291E-2
3.159292072E1,-1.033210754E-2,-5.107143521E-2,-7.313847542E-2
3.161193572E1,-2.562236786E-2,-3.316149116E-2,-8.732223511E-2
3.163095067E1,-3.211975098E-2,-3.111895919E-2,-7.159769535E-2
3.164996567E1,-1.562786102E-2,-3.977116942E-2,-5.705583096E-2
3.166898067E1,-1.749324799E-2,-4.599499702E-2,-7.848799229E-2
3.168799567E1,-1.453399658E-2,-6.669853628E-2,-8.272302151E-2
3.170701062E1,-2.777671814E-2,-7.369294763E-2,-7.172024250E-2
3.172602562E1,-3.321647644E-2,-6.249120831E-2,-5.526065826E-2
3.174504062E1,-2.269172668E-2,-1.762351394E-2,-4.375112057E-2
3.176405562E1,-3.036880493E-2,-1.534795761E-2,-5.451655388E-2
3.178307057E1,-2.933311462E-2,-4.158326983E-2,-4.952037334E-2
3.180208557E1,-3.132534027E-2,-7.019796968E-2,-5.006551743E-2
3.182110057E1,-2.184104919E-2,-6.932778656E-2,-6.194257736E-2
3.184011557E1,-1.750373840E-2,-3.678053617E-2,-7.463502884E-2
3.185913051E1,-3.180313110E-2,-1.379337907E-2,-5.124115944E-2
3.187814551E1,-2.986526489E-2,-2.772356570E-2,-4.118585587E-2
3.189716051E1,-2.668094635E-2,-6.053394079E-2,-3.884971142E-2
3.191617551E1,-2.754116058E-2,-7.779465616E-2,-5.957555771E-2
3.193519051E1,-8.460998535E-3,-6.242328882E-2,-7.924103737E-2
3.195420551E1,-1.622581482E-2,-3.778985143E-2,-8.084189892E-2
3.197322046E1,-2.936840057E-2,-1.225453615E-2,-6.170070171E-2
3.199223546E1,-2.245712280E-2,-3.776095808E-2,-6.068277359E-2
3.201125046E1,-9.043693542E-3,-5.600497127E-2,-7.084465027E-2
3.203026541E1,-2.656555176E-2,-4.157213867E-2,-7.964944839E-2
3.204928041E1,-4.157829285E-2,-2.797290683E-2,-8.290672302E-2
3.206829541E1,-3.065490723E-2,-5.405595899E-2,-7.103765011E-2
3.208731041E1,-1.627731323E-2,-5.622264743E-2,-7.221901417E-2
3.210632541E1,-4.209613800E-2,-2.941872180E-2,-6.824100018E-2
3.212534036E1,-4.556179047E-2,-2.088604867E-2,-6.577968597E-2
3.214435536E1,4.991531372E-3,-5.779050291E-2,-6.138372421E-2
3.216337036E1,9.848594666E-3,-5.258744955E-2,-5.428087711E-2
3.218238536E1,-3.439521790E-2,-3.783699870E-2,-5.751144886E-2
3.220140036E1,-4.050254822E-2,-4.619054496E-2,-6.211352348E-2
3.222041531E1,-1.289939880E-2,-6.911179423E-2,-6.749391556E-2
3.223943031E1,-3.413295746E-2,-4.738940299E-2,-7.427072525E-2
3.225844531E1,-2.249622345E-2,-1.877513528E-2,-7.254493237E-2
3.227746031E1,-2.871227264E-2,-2.594150603E-2,-4.768180847E-2
3.229647531E1,-3.837490082E-2,-1.804976165E-2,-4.060852528E-2
3.231549025E1,-3.095054626E-2,-2.032426000E-2,-4.019856453E-2
3.233450525E1,-2.459430695E-2,-3.913763165E-2,-4.974532127E-2
3.235352025E1,-1.417922974E-2,-4.892162979E-2,-6.501090527E-2
3.237253525E1,-1.585292816E-2,-5.159080029E-2,-6.739437580E-2
3.239155025E1,-1.887035370E-2,-2.953676879E-2,-5.810534954E-2
3.241056520E1,-4.517269135E-2,-1.037713885E-2,-5.328404903E-2
3.242958020E1,-4.343128204E-2,-2.975630760E-2,-4.323649406E-2
3.244859520E1,-1.093578339E-2,-5.715647340E-2,-3.909707069E-2
3.246761020E1,-2.478504181E-2,-2.843381464E-2,-4.326868057E-2
3.248662520E1,-3.265094757E-2,-9.421691298E-3,-3.540849686E-2
3.250564020E1,-2.994060516E-2,-3.940629959E-2,-4.643213749E-2
3.252465515E1,-2.871227264E-2,-6.818643212E-2,-4.578351974E-2
3.254367015E1,-3.844356537E-2,-3.993652761E-2,-4.230523109E-2
3.256268515E1,-3.335380554E-2,-1.539579034E-2,-2.470171452E-2
3.258170015E1,-8.166313171E-3,-3.180611134E-2,-1.012587547E-2
3.260071515E1,-2.235031128E-2,-5.141514540E-2,-2.650594711E-2
3.261973010E1,-4.170036316E-2,-5.800302327E-2,-4.855763912E-2
3.263874510E1,-3.163337708E-2,-5.239441991E-2,-5.552160740E-2
3.265776010E1,-1.979160309E-2,-4.617562890E-2,-5.140137672E-2
3.267677510E1,-2.743721008E-2,-3.294470906E-2,-5.616474152E-2
3.269579010E1,-3.216362000E-2,-2.606922388E-2,-6.310677528E-2
3.271480510E1,-2.205848694E-2,-3.267261386E-2,-7.863438129E-2
3.273382010E1,-1.791286469E-2,-1.767782867E-2,-7.797729969E-2
3.275283505E1,-2.383995056E-2,-2.672983706E-2,-7.146680355E-2
3.277185005E1,-3.207588196E-2,-4.317852855E-2,-6.699109077E-2
3.279086505E1,-3.126621246E-2,-5.799198151E-2,-7.828748226E-2
3.280988005E1,-2.045440674E-2,-5.577045679E-2,-7.388019562E-2
3.282889505E1,-9.761810303E-3,-4.603235424E-2,-9.337604046E-2
3.284791005E1,-5.174827576E-2,-3.394235671E-2,-5.996716022E-2
3.286692505E1,-4.527568817E-2,-2.085506916E-2,-4.408860207E-2
3.288593999E1,1.029300690E-2,-3.137476742E-2,-6.517398357E-2
3.290495499E1,8.966445923E-3,-6.458553672E-2,-5.424439907E-2
3.292396999E1,-4.608058929E-2,-3.314489126E-2,-5.948066711E-2
3.294298499E1,-3.335666656E-2,-1.312196255E-4,-8.003890514E-2
3.296199999E1,-2.867889404E-2,-1.036122441E-2,-8.514666557E-2
3.298101499E1,-2.555274963E-2,-3.121548891E-2,-7.437789440E-2
3.300002999E1,-6.659507751E-3,-3.816689551E-2,-6.431519985E-2
3.301904494E1,-3.804397583E-2,-5.234307051E-2,-6.031787395E-2
3.303805994E1,-4.542350769E-2,-3.341883421E-2,-2.992630005E-2
3.305707494E1,-2.214431763E-2,-5.216866732E-3,-3.422391415E-2
3.307608994E1,-6.594657898E-3,-1.383568347E-2,-6.095159054E-2
3.309510494E1,-1.315307617E-2,-1.997329295E-2,-8.080232143E-2
3.311411994E1,-2.789211273E-2,-3.666061163E-2,-8.717715740E-2
3.313313494E1,-1.395988464E-2,-3.181280196E-2,-7.004177570E-2
3.315214994E1,-3.934860229E-2,-2.477794886E-2,-6.235861778E-2
3.317116494E1,-1.985263824E-2,-2.069543302E-2,-5.928516388E-2
3.319017994E1,-1.063728333E-2,-5.453480780E-2,-5.300033092E-2
3.320919489E1,-2.194595337E-2,-7.564494014E-2,-6.556642056E-2
3.322820989E1,-3.145408630E-2,-6.641252339E-2,-7.029688358E-2
3.324722489E1,-1.736736298E-2,-5.138334632E-2,-5.841660500E-2
3.326623989E1,-2.139568329E-2,-4.823377728E-2,-5.423009396E-2
3.328525489E1,-3.227138519E-2,-6.208282709E-2,-6.727683544E-2
3.330426989E1,-3.523349762E-2,-6.794087589E-2,-6.207704544E-2
3.332328489E1,-2.848243713E-2,-6.716737151E-2,-4.184830189E-2
3.334229989E1,-2.594757080E-2,-1.876738667E-2,-5.336153507E-2
3.336131489E1,-2.764320374E-2,-9.448423982E-3,-6.493484974E-2
3.338032989E1,-1.836872101E-2,-3.124992549E-2,-6.383800507E-2
3.339934484E1,-2.291297913E-2,-7.955203950E-2,-6.502377987E-2
3.341835984E1,-1.913356781E-2,-7.198916376E-2,-6.765854359E-2
3.343737484E1,-8.732795715E-3,-4.776608944E-2,-7.350468636E-2
3.345638984E1,-2.235984802E-2,-2.133680880E-2,-6.547534466E-2
3.347540484E1,-3.952407837E-2,-2.243223786E-2,-5.891978741E-2
3.349441984E1,-1.360607147E-2,-5.052971840E-2,-6.394648552E-2
3.351343484E1,-1.587200165E-2,-6.120735407E-2,-6.681025028E-2
3.353244984E1,-1.575279236E-2,-4.106564820E-2,-6.619739532E-2
3.355146484E1,-2.758979797E-2,-2.224522829E-2,-7.023203373E-2
3.357047984E1,-2.153968811E-2,-2.702961862E-2,-8.081400394E-2
3.358949484E1,-2.021408081E-2,-3.557325900E-2,-7.825124264E-2
3.360850984E1,-2.303123474E-2,-2.056446671E-2,-8.003795147E-2
3.362752484E1,-1.559638977E-2,-3.272855282E-2,-8.923673630E-2
3.364653978E1,-4.411697388E-3,-3.905567527E-2,-9.356534481E-2
3.366555479E1,-5.080127716E-2,-6.441001594E-2,-7.261323929E-2
3.368456978E1,-2.789020538E-2,-5.662049353E-2,-8.447837830E-2
3.370358479E1,1.481723785E-2,-5.160446465E-2,-8.817255497E-2
3.372259978E1,-7.346153259E-3,-5.784952641E-2,-3.926813602E-2
3.374161478E1,-4.504680634E-2,-3.233358264E-2,-3.751063347E-2
3.376062978E1,-9.220123291E-3,-3.550377488E-2,-6.769168377E-2
3.377964478E1,-2.584362030E-2,-6.028136611E-2,-8.770918846E-2
3.379865979E1,-5.031490326E-2,-3.679189086E-2,-8.410358429E-2
3.381767478E1,-1.855373383E-2,-4.527448118E-2,-6.228673458E-2
3.383668979E1,-1.578903198E-2,-5.163961649E-2,-4.265582561E-2
3.385570478E1,-2.856254578E-2,-3.255178034E-2,-5.059719086E-2
3.387471978E1,-3.660869598E-2,-5.211549997E-2,-4.594993591E-2
3.389373478E1,-7.178306580E-3,-7.473839819E-2,-6.101930141E-2
3.391274978E1,-2.254009247E-2,-3.886730969E-2,-5.868148804E-2
3.393176478E1,-4.783153534E-2,9.960606694E-3,-5.837213993E-2
3.395077978E1,-1.687908173E-2,-9.685024619E-3,-6.766796112E-2
3.396979479E1,-1.222038269E-2,-2.534987032E-2,-6.726276875E-2
3.398880978E1,-3.320407867E-2,-6.253093481E-3,-8.546078205E-2
3.400782473E1,-1.938915253E-2,-2.538751066E-2,-6.638360023E-2
3.402683973E1,-3.208541870E-2,-1.369315386E-2,-3.113663197E-2
3.404585473E1,-2.784442902E-2,1.006045938E-2,-3.285372257E-2
3.406486973E1,-1.885414124E-2,-1.347388327E-2,-4.426121712E-2
3.408388473E1,-2.266883850E-2,-3.657147288E-2,-5.379474163E-2
3.410289973E1,-2.256965637E-2,-4.488493502E-2,-3.501188755E-2
3.412191473E1,-3.675174713E-2,-2.076832950E-2,-4.089772701E-2
3.414092973E1,-4.022216797E-2,6.875082850E-3,-4.384326935E-2
3.415994473E1,-3.511905670E-2,-3.330421448E-2,-4.950261116E-2
3.417895973E1,-2.572536469E-2,-6.887593865E-2,-4.785788059E-2
3.419797473E1,-1.852512360E-2,-5.013664067E-2,-3.320050240E-2
3.421698973E1,-3.605175018E-2,-2.124102414E-2,-3.023946285E-2
3.423600473E1,-3.255462646E-2,-1.624846458E-2,-5.379521847E-2
3.425501973E1,-2.859592438E-2,-3.873391449E-2,-6.440865993E-2
3.427403473E1,-2.651023865E-2,-5.447112024E-2,-4.438352585E-2
3.429304973E1,-2.135562897E-2,-5.064004660E-2,-4.515159130E-2
3.431206473E1,-1.977348328E-2,-5.073745549E-2,-5.087459087E-2
3.433107973E1,-2.032852173E-2,-7.078722119E-2,-6.591236591E-2
3.435009473E1,-2.840995789E-2,-7.113872468E-2,-7.096505165E-2
3.436910973E1,-2.847099304E-2,-7.466660440E-2,-5.099558830E-2
3.438812473E1,-1.733303070E-2,-4.897198081E-2,-3.542840481E-2
3.440713973E1,-2.664470673E-2,-1.539261639E-2,-4.531896114E-2
3.442615473E1,-2.523708344E-2,-2.225853503E-2,-5.109190941E-2
3.444516973E1,-1.718139648E-2,-3.907698393E-2,-6.077539921E-2
3.446418473E1,-1.979255676E-2,-5.039843917E-2,-5.389213562E-2
3.448319973E1,-3.436851501E-2,-3.155249357E-2,-5.955994129E-2
3.450221473E1,-2.327919006E-2,-2.404250205E-2,-7.378125191E-2
3.452122973E1,-2.723121643E-2,-4.228645563E-2,-6.516611576E-2
3.454024473E1,-3.874588013E-2,-7.586562634E-2,-4.366707802E-2
3.455925973E1,-1.145553589E-2,-5.480276048E-2,-5.146813393E-2
3.457827473E1,8.022308350E-3,-3.558634222E-2,-6.603479385E-2
3.459728973E1,-2.376079559E-2,-1.739239693E-2,-2.944445610E-2
3.461630473E1,-5.093765259E-2,-2.165748179E-2,-4.045677185E-2
3.463531973E1,-2.708530426E-2,-6.142148376E-2,-5.513906479E-2
3.465433473E1,-2.514648438E-2,-6.688857079E-2,-6.874847412E-2
3.467334973E1,-3.538608551E-2,-2.976071835E-2,-3.589391708E-2
3.469236473E1,-3.082561493E-2,-4.104480147E-2,-8.831501007E-3
3.471137973E1,-2.389717102E-2,-5.488139391E-2,-6.932854652E-3
3.473039473E1,-2.556610107E-2,-3.447945416E-2,-3.828537464E-2
3.474940973E1,-2.977848053E-2,-1.193560660E-2,-5.752038956E-2
3.476842473E1,-2.073955536E-2,-2.475406229E-2,-5.680704117E-2
3.478743973E1,-2.734756470E-2,-3.657723963E-2,-4.840993881E-2
3.480645473E1,-3.139591217E-2,-2.840889990E-2,-5.824387074E-2
3.482546973E1,-2.150154114E-2,-3.068438172E-2,-6.974387169E-2
3.484448473E1,-3.648662567E-2,-4.562942684E-2,-6.554841995E-2
3.486349973E1,-3.455448151E-2,-5.027358234E-2,-8.155775070E-2
3.488251473E1,-3.994655609E-2,-6.819814444E-2,-8.422946930E-2
3.490152973E1,-1.432800293E-2,-9.753693640E-2,-5.145084858E-2
3.492054473E1,-1.642990112E-2,-9.531882405E-2,-2.004814148E-2
3.493955973E1,-2.736282349E-2,-5.901843309E-2,-2.626466751E-2
3.495857473E1,-4.396152496E-2,-6.000213325E-2,-2.725982666E-2
3.497758973E1,-4.087066650E-2,-3.611995280E-2,-3.164732456E-2
3.499660473E1,-5.701255798E-2,-2.425509691E-2,-2.918422222E-2
3.501561973E1,-4.631900787E-2,-5.259579420E-2,-2.830135822E-2
3.503463473E1,-2.005386353E-2,-8.740448952E-2,-9.936928749E-3
3.505364973E1,-1.654434204E-2,-1.426691115E-1,-8.172869682E-3
3.507266473E1,-3.345870972E-2,-1.393612623E-1,-2.059173584E-2
3.509167973E1,-4.880905151E-2,-1.360123605E-1,-2.248847485E-2
3.511069473E1,-4.917240143E-2,-1.284902096E-1,-2.024102211E-2
3.512970973E1,-6.300258636E-2,-1.274204999E-1,-1.408648491E-2
3.514872473E1,-3.749847412E-2,-1.032599360E-1,1.497423649E-2
3.516773973E1,-3.165531158E-2,-8.451232314E-2,2.294552326E-2
3.518675473E1,-4.520416260E-2,-9.531746805E-2,4.317665100E-2
3.520576973E1,-4.702377319E-2,-9.894309938E-2,2.441334724E-2
3.522478479E1,-6.179714203E-2,-1.219956353E-1,-5.993843079E-4
3.524379978E1,-7.506561279E-2,-1.514175832E-1,2.622365952E-3
3.526281478E1,-6.234264374E-2,-1.644229293E-1,3.113961220E-2
3.528182978E1,-4.823970795E-2,-1.489814818E-1,5.018031597E-2
3.530084478E1,-4.372310638E-2,-1.548878849E-1,5.059766769E-2
3.531985979E1,-5.777835846E-2,-1.459375769E-1,6.792509556E-2
3.533887478E1,-7.524871826E-2,-1.310090423E-1,8.404779434E-2
3.535788979E1,-6.609439850E-2,-1.237296909E-1,9.653508663E-2
3.537690478E1,-5.100536346E-2,-1.773443222E-1,6.687843800E-2
3.539591979E1,-5.550193787E-2,-2.238845825E-1,4.602718353E-2
3.541493478E1,-9.116268158E-2,-2.379418612E-1,6.283044815E-2
3.543394978E1,-9.646320343E-2,-2.389731109E-1,9.283995628E-2
3.545296478E1,-7.045269012E-2,-2.535164654E-1,1.013395786E-1
3.547197978E1,-5.280590057E-2,-2.590452731E-1,1.357312202E-1
3.549099479E1,-8.853816986E-2,-2.772502601E-1,1.774451733E-1
3.551000978E1,-1.085557938E-1,-3.059922159E-1,1.720665693E-1
3.552902479E1,-9.898376465E-2,-2.889330983E-1,1.615016460E-1
3.554803978E1,-8.944320679E-2,-2.903672159E-1,1.933975220E-1
3.556705478E1,-8.708286285E-2,-3.256349862E-1,2.121989727E-1
3.558606978E1,-7.084274292E-2,-3.904452622E-1,1.604377031E-1
3.560508478E1,-3.208541870E-2,-3.828600943E-1,1.758750677E-1
3.562409979E1,-5.266666412E-2,-3.887723684E-1,1.968157291E-1
3.564311478E1,-5.387592316E-2,-3.863774538E-1,2.443984747E-1
3.566212984E1,-7.373237610E-2,-3.665918708E-1,3.108225465E-1
3.568114484E1,-1.102437973E-1,-3.596162498E-1,2.963733673E-1
3.570015984E1,-1.012239456E-1,-2.975431085E-1,2.401773930E-1
3.571917484E1,2.271842957E-2,-1.493177712E-1,2.918694019E-1
3.573818984E1,8.478069305E-2,-2.406519651E-2,3.305809498E-1
3.575720484E1,6.257057190E-3,-1.527148485E-2,2.026526928E-1
3.577621984E1,-1.703500748E-1,4.942047596E-2,9.601891041E-2
3.579523484E1,-2.931509018E-1,2.550232410E-1,6.780487299E-2
3.581424984E1,-2.992200851E-1,3.767625391E-1,2.803629637E-2
3.583326484E1,-2.167768478E-1,4.724733233E-1,6.746697426E-2
3.585227984E1,-3.727054596E-2,5.100806952E-1,8.235132694E-2
3.587129484E1,1.600952148E-1,5.095567703E-1,1.043902636E-1
3.589030984E1,2.792053223E-1,5.176414847E-1,2.391972542E-1
3.590932484E1,2.734365463E-1,4.782988429E-1,2.792783976E-1
3.592833984E1,2.756261826E-1,4.153476655E-1,2.978348732E-1
3.594735484E1,2.976264954E-1,4.874066114E-1,2.988334298E-1
3.596636989E1,3.368549347E-1,5.296832323E-1,2.483527660E-1
3.598538489E1,2.815809250E-1,3.573407829E-1,7.552105188E-2
3.600439989E1,9.149837494E-2,1.410216093E-1,-1.393390894E-1
3.602341489E1,-7.449626923E-2,9.921026230E-2,-2.114731967E-1
3.604242989E1,-1.560001373E-1,2.725861669E-1,-1.368718147E-1
3.606144489E1,-2.482862473E-1,3.679203987E-1,-2.671596408E-2
3.608045989E1,-3.777055740E-1,4.268178940E-1,2.217578888E-2
3.609947489E1,-4.222211838E-1,3.610556722E-1,7.195475698E-2
3.611848989E1,-4.318866730E-1,2.956168056E-1,2.259320617E-1
3.613750489E1,-4.272203445E-1,1.659263968E-1,3.595992029E-1
3.615651989E1,-3.613710403E-1,7.720327377E-2,4.722955525E-1
3.617553489E1,-3.114585876E-1,-5.059963465E-2,5.515047312E-1
3.619454994E1,-4.790763855E-1,-1.953054070E-1,5.059370995E-1
3.621356489E1,-5.357961655E-1,-8.938544989E-2,6.556186676E-1
3.623257994E1,-1.120195389E-1,3.393468857E-1,9.650351405E-1
3.625159494E1,2.225933075E-1,5.599126220E-1,1.017446399E0
3.627060994E1,6.603431702E-2,3.484453559E-1,8.745863438E-1
3.628962494E1,-7.825851440E-2,1.604712009E-2,6.939187050E-1
3.630863994E1,1.174936295E-1,-2.212943435E-1,6.662062407E-1
3.632765494E1,2.620458603E-1,-2.784155011E-1,7.402030826E-1
3.634666994E1,2.713031769E-1,-1.336972117E-1,7.857810259E-1
3.636568494E1,1.813659668E-1,5.842643976E-2,8.294416666E-1
3.638469994E1,5.671119690E-2,1.569978595E-1,8.429832458E-1
3.640371494E1,-6.328868866E-2,1.765477657E-1,8.404358625E-1
3.642272999E1,-1.864366531E-1,1.686900258E-1,9.513242841E-1
3.644174499E1,-3.852119446E-1,1.706560850E-1,1.165596008E0
3.646075999E1,-6.466398239E-1,3.163841963E-1,1.274493814E0
3.647977499E1,-7.891483307E-1,5.333666801E-1,1.268245578E0
3.649878999E1,-7.727479935E-1,5.667173266E-1,1.342135191E0
3.651780499E1,-5.853528976E-1,3.619376421E-1,1.452461839E0
3.653681999E1,-4.022521973E-1,9.937030077E-2,1.665874958E0
3.655583499E1,-3.709373474E-1,-3.560131788E-2,1.850843310E0
3.657484999E1,-6.622791290E-2,-1.093717813E-1,1.606739044E0
3.659386499E1,9.676074982E-1,4.310854673E-1,6.111941338E-1
3.661287999E1,1.868418694E0,1.460005760E0,1.274079084E-2
3.663189505E1,2.291204453E0,1.696127892E0,9.532511234E-2
3.665091005E1,2.250005722E0,4.533004761E-2,8.613097668E-1
3.666992505E1,1.173889160E0,-1.254222393E0,9.377114177E-1
3.668894005E1,-5.475807190E-2,-4.774286747E-1,4.398613274E-1
3.670795505E1,-4.079046249E-1,9.565318823E-1,-1.668638587E-1
3.672697005E1,-4.060688019E-1,1.253360748E0,-9.467650652E-1
3.674598505E1,-3.048524857E-1,2.355607748E-1,-1.293455005E0
3.676500010E1,9.000396729E-2,-8.789349198E-1,-1.228265762E0
3.678401510E1,1.828193665E-2,-1.382166386E0,-1.276078701E0
3.680303010E1,3.029174805E-1,-1.021105528E0,-8.210660219E-1
3.682204510E1,6.678695679E-1,-2.428521514E-1,-4.977702796E-1
3.684106010E1,8.644914627E-1,8.762657642E-2,-6.044992208E-1
3.686007510E1,5.877189636E-1,-1.739249527E-1,-8.643112183E-1
3.687909010E1,2.873764038E-1,-5.615938902E-1,-1.057299852E0
3.689810510E1,-1.586732864E-1,-9.345409870E-1,-1.183775783E0
3.691712015E1,-6.866893768E-1,-9.526616931E-1,-1.143405676E0
3.693613515E1,-1.039292336E0,-7.554515600E-1,-9.895276427E-1
3.695515015E1,-9.733161926E-1,-6.196562648E-1,-8.271965384E-1
3.697416515E1,-8.313369751E-1,-6.606824398E-1,-6.749677658E-1
3.699318015E1,-7.477722168E-1,-5.751607418E-1,-5.728076696E-1
3.701219520E1,-6.278181076E-1,-7.010813355E-1,-5.578469038E-1
3.703121020E1,-7.594585419E-1,-1.037824750E0,-3.990068436E-1
3.705022520E1,-8.175039291E-1,-1.055472255E0,-2.356194258E-1
3.706924020E1,-5.757141113E-1,-8.276185989E-1,-2.577996254E-2
3.708825520E1,-3.867702484E-1,-4.779677391E-1,1.843858957E-1
