time,acceleration_x,acceleration_y,acceleration_z
1699310147788,0.000345027,0.003444015,-0.006797231
1699310147799,0.001972216,0.004212838,-0.013408151
1699310147813,0.003558022,0.0048161165,-0.019888922
1699310147833,0.004647889,0.0056405113,-0.0265106869999999
1699310147853,0.0055370462,0.0065699701,-0.0331387079999999
1699310147873,0.0059296332,0.007250239,-0.0399087209999999
1699310147889,0.0055742502,0.0076562703,-0.0468067469999999
1699310147906,0.0047574004,0.00756699959,-0.054013963
1699310147922,0.0032873594,0.00742617879,-0.061447632
1699310147939,0.0014625544,0.007421247844,-0.069091579
1699310147956,-0.0006952885999999,0.007672301244,-0.077036147
1699310147971,-0.0032578956,0.008369151944,-0.085177147
1699310147986,-0.0062817046,0.009645020944,-0.0935778029999999
1699310148003,-0.0094242256,0.011389785944,-0.1021159109999999
1699310148014,-0.0127445336,0.013173591944,-0.1109598949999999
1699310148029,-0.0159777786,0.014891297944,-0.11993828
1699310148047,-0.0192357936,0.016548517944,-0.129152346
1699310148060,-0.0224024696,0.018386466944,-0.138528918
1699310148074,-0.0253274296,0.020157838944,-0.148080427
1699310148088,-0.0282718246,0.022275731944,-0.157788053
1699310148103,-0.0312277266,0.024243931944,-0.167381815
1699310148116,-0.0341523816,0.026348492944,-0.176739433
1699310148129,-0.0371513816,0.028584024944,-0.185967296
1699310148143,-0.0399711586,0.030915738944,-0.194991469
1699310148158,-0.0428870576,0.032852396944,-0.204265042
1699310148172,-0.0457220156,0.034695414944,-0.213590764
1699310148185,-0.0488885946,0.036064964944,-0.223201629
1699310148200,-0.0523902736,0.037092106944,-0.23301312
1699310148214,-0.0559564596,0.037780109444,-0.242899236
1699310148228,-0.0595248296,0.037874809244,-0.252951576
1699310148243,-0.0630522476,0.037839739144,-0.263189466
1699310148258,-0.0667497826,0.037664834944,-0.273560746
1699310148273,-0.0705937596,0.037515061544,-0.284144416
1699310148287,-0.0745225916,0.037576962974,-0.294869376
1699310148303,-0.0785776706,0.037598814654,-0.305909156
1699310148317,-0.0826120125999999,0.037483758454,-0.317339496
1699310148331,-0.0862751416,0.037186228354,-0.328815136
1699310148340,-0.0897956925999999,0.037042593554,-0.340382936
1699310148353,-0.0929312765999999,0.036695831154,-0.351916296
1699310148368,-0.0956641185999999,0.037285783054,-0.363405096
1699310148382,-0.0980540885999999,0.037969392254,-0.374777326
1699310148395,-0.1003132005999999,0.039207908254,-0.385866286
1699310148408,-0.1024287795999999,0.041182129254,-0.396424226
1699310148422,-0.1041909875999999,0.043338778254,-0.406566696
1699310148437,-0.1061207666,0.045379543254,-0.416292635
1699310148451,-0.1082023416,0.047074026254,-0.425674166
1699310148465,-0.1106267676,0.048498548254,-0.434578767
1699310148478,-0.1131050476,0.049431251354,-0.442944816
1699310148490,-0.1159709456,0.050532389354,-0.450702134
1699310148504,-0.1191818886,0.051450491654,-0.457911815
1699310148518,-0.1227662076,0.052135279554,-0.464544046
1699310148533,-0.1269949796,0.052652587254,-0.470599275
1699310148548,-0.1316657206,0.053139667854,-0.476057212
1699310148561,-0.1368876446,0.053301723654,-0.4809346520000001
1699310148575,-0.1423654196,0.052954775654,-0.4850809810000001
1699310148588,-0.1484299235999999,0.052489210954,-0.4885920780000001
1699310148602,-0.1548910365999999,0.051548278254,-0.4915044060000001
1699310148615,-0.1619658625999999,0.049791575254,-0.4940623750000001
1699310148631,-0.1696159906,0.047689265254,-0.4963178320000001
1699310148644,-0.1775901656,0.045122781254,-0.4982695540000001
1699310148656,-0.1860697216,0.042895458254,-0.4999369660000001
1699310148672,-0.1951227975999999,0.0408987692539999,-0.501208618
1699310148685,-0.2045855666,0.0387631562539999,-0.5021052472
1699310148699,-0.2145972565999999,0.036658370254,-0.502756924
1699310148712,-0.2249642965999999,0.034098368254,-0.5032538634
1699310148726,-0.2354641365999999,0.031295831254,-0.5035832533
1699310148741,-0.2460766266,0.0287330002539999,-0.5037789057
1699310148755,-0.2567266766,0.0268099902539999,-0.5037858829359999
1699310148769,-0.2673657966,0.0254286532539999,-0.5034761918359999
1699310148783,-0.2778903966,0.0243727572539999,-0.5029886763359999
1699310148796,-0.2882164566,0.0235037503539999,-0.5021528705359999
1699310148810,-0.2984618066,0.0225316810539999,-0.5010057295359999
1699310148822,-0.3084471985999999,0.0214455800539999,-0.4995088365359998
1699310148837,-0.3180105715999999,0.0202229260539999,-0.4974365075359999
1699310148851,-0.3273776505999999,0.018779931054,-0.4949484215359999
1699310148866,-0.3362949195999999,0.016801363054,-0.4918316355359999
1699310148880,-0.3449529546,0.0147243620539999,-0.4881176685359999
1699310148894,-0.3530215525999999,0.0126611100539999,-0.4836691485359999
1699310148907,-0.3608300215999999,0.010488848054,-0.4782869435359999
1699310148920,-0.3685259455999999,0.0078997510539999,-0.4719909945359999
1699310148933,-0.3759473695999999,0.0046619230539999,-0.4645571905359999
1699310148947,-0.3831856686,0.0006992400539999,-0.4561835975359999
1699310148964,-0.3900311775999999,-0.004001609946,-0.4468082085359999
1699310148979,-0.3964759035999999,-0.009195170946,-0.4367449285359999
1699310148991,-0.4025147235999999,-0.014849892946,-0.4261519885359999
1699310149005,-0.4086793365999999,-0.020983784946,-0.4152960685359999
1699310149020,-0.4147336325999999,-0.027632384946,-0.4041651685359999
1699310149033,-0.4205657745999999,-0.034621409946,-0.3926908185359998
1699310149046,-0.4262886465999999,-0.041746320946,-0.3811327785359998
1699310149060,-0.4317534165999999,-0.048720058946,-0.3694649285359999
1699310149075,-0.4367779035999999,-0.055443373946,-0.3578061885359999
1699310149088,-0.4415104296,-0.062323918946,-0.3464277285359999
1699310149102,-0.4457315286,-0.069583236946,-0.3353195885359999
1699310149116,-0.4494515155999999,-0.0771593449459999,-0.3243597285359999
1699310149130,-0.4525874365999999,-0.084426672946,-0.3135583985359999
1699310149144,-0.4550603385999999,-0.0910546499459999,-0.3029197485359999
1699310149157,-0.4569371305999999,-0.0964187359459999,-0.2923977285359999
1699310149171,-0.4582224436,-0.1005707219459999,-0.2821532485359999
1699310149184,-0.4584423674999999,-0.1042617219459999,-0.2720862785359998
1699310149199,-0.4579834310999999,-0.1079110619459999,-0.2624530505359999
1699310149213,-0.4564940080999999,-0.1113221639459999,-0.2529113065359998
1699310149227,-0.4542586790999999,-0.1142224639459999,-0.2436274695359998
1699310149241,-0.4511665820999999,-0.1166830219459999,-0.2345811485359998
1699310149255,-0.4474848350999999,-0.1187826819459999,-0.2258437355359998
1699310149268,-0.4431980510999999,-0.1206267769459999,-0.2174268485359998
1699310149281,-0.4380148000999999,-0.122115508946,-0.2093297135359998
1699310149297,-0.4321055580999999,-0.123450793946,-0.2015408595359998
1699310149310,-0.4254597710999999,-0.124873074946,-0.1940498075359998
1699310149323,-0.4182034700999999,-0.126524052946,-0.1865458395359998
1699310149337,-0.4102292440999999,-0.128286547946,-0.1791370335359998
1699310149349,-0.4016486950999999,-0.129833670946,-0.1717137725359998
1699310149365,-0.3924329720999999,-0.131191145946,-0.1643113325359998
1699310149380,-0.3823860520999999,-0.132920446946,-0.1570058465359998
1699310149393,-0.3719024520999999,-0.134856361946,-0.1498120445359998
1699310149408,-0.3610321120999999,-0.137064815946,-0.1428959225359998
1699310149421,-0.3495622820999999,-0.139023125946,-0.1361001335359998
1699310149435,-0.3375855020999999,-0.140239226946,-0.1292621565359998
1699310149448,-0.3250293120999999,-0.1406509950459999,-0.1224524535359998
1699310149462,-0.3120012220999999,-0.1401483677459999,-0.1155576845359998
1699310149476,-0.2988486120999999,-0.1390915957459999,-0.1087120445359998
1699310149490,-0.2854240420999999,-0.1377695827459999,-0.1017520175359998
1699310149505,-0.2716518120999999,-0.1366142477459999,-0.0948610795359998
1699310149520,-0.2576649720999999,-0.1356054207459999,-0.0878319345359998
1699310149533,-0.2433313720999999,-0.1348006787459999,-0.0806543825359998
1699310149547,-0.2286942320999999,-0.1333834947459999,-0.0731851835359998
1699310149561,-0.2138064720999999,-0.1315382547459999,-0.0655262445359998
1699310149575,-0.1984381320999999,-0.1294648057459999,-0.0576202225359998
1699310149587,-0.1827063720999998,-0.1273808547459999,-0.0495088165359998
1699310149602,-0.1665336320999998,-0.1254466807459999,-0.0413395865359998
1699310149616,-0.1498831720999998,-0.1241050827459999,-0.0331152985359998
1699310149631,-0.1328184920999998,-0.1232131075459999,-0.0249896525359998
1699310149644,-0.1151562220999998,-0.1223101533459999,-0.0168222315359998
1699310149656,-0.0971246520999998,-0.1212355433459999,-0.0087644875359998
1699310149671,-0.0788070920999998,-0.1200732363459999,-0.0010407185359998
1699310149685,-0.0600345920999998,-0.1189290943459999,0.0062827894640001
1699310149700,-0.0410254820999998,-0.1178050813459999,0.0133155744640001
1699310149714,-0.0219057820999998,-0.1167257023459999,0.0201851634640001
1699310149728,-0.0029834320999998,-0.1155526833459999,0.0271910934640001
1699310149742,0.0155912379000001,-0.1144428283459999,0.0343307544640001
1699310149755,0.0338490579000001,-0.1136995476459999,0.0414750094640001
1699310149769,0.0518568079000001,-0.1132754369459999,0.0484589694640001
1699310149783,0.0694282079000001,-0.1132403148459999,0.0549880454640001
1699310149797,0.0868507579000001,-0.1133903625459999,0.0609983764640001
1699310149810,0.1035047779000001,-0.1131528929459999,0.0662616064640001
1699310149825,0.1192827079000001,-0.1123004009459999,0.0707778614640001
1699310149839,0.1345522979000001,-0.1108156649459999,0.0746703114640001
1699310149852,0.1492124879000001,-0.1090151719459999,0.0779336684640001
1699310149866,0.1631451779000001,-0.1072856369459999,0.0804428574640001
1699310149880,0.1764064579000001,-0.1059535489459999,0.0823295124640001
1699310149893,0.1890608379,-0.1048571989459999,0.0837571914640001
1699310149908,0.2012250379,-0.1039698912459999,0.0849622314640001
1699310149921,0.2124451479,-0.1030780933459999,0.0860026794640001
1699310149936,0.2231610379,-0.1022676535459999,0.0870475934640001
1699310149951,0.2333919579,-0.1011775925459999,0.0880692924640001
1699310149964,0.2431397419000001,-0.0996405765459999,0.0889968633640001
1699310149977,0.2527918869000001,-0.0976620975459999,0.0899411345640001
1699310149991,0.2623852109000001,-0.0954008215459999,0.0909014867640001
1699310150006,0.2719078599000001,-0.0930339285459999,0.0918528728640001
1699310150019,0.2815859209000001,-0.0905771625459999,0.0927186067640001
1699310150033,0.2915903209000001,-0.0885854645459999,0.0937125351640001
1699310150047,0.3021050809000001,-0.0866949185459999,0.0947688761640001
1699310150061,0.3127688709000001,-0.0845390025459999,0.0959245461640001
1699310150075,0.3233188009000001,-0.0827583505459999,0.0968228604640001
1699310150087,0.3340796609000001,-0.0810092895459999,0.0976044508640001
1699310150102,0.3448684309000001,-0.0792338725459999,0.0980845244640001
1699310150116,0.3559677309000001,-0.0776499985459999,0.0984077789640001
1699310150130,0.3673956709000001,-0.0761489065459999,0.0986532200640001
1699310150145,0.3787832309000001,-0.0750679925459999,0.0986434755190001
1699310150159,0.3902017409000001,-0.0740434685459999,0.0985758738390001
1699310150172,0.4016951109000001,-0.0730407815459999,0.0984307669390001
1699310150187,0.4131863309000002,-0.0721323008459999,0.0982013120390001
1699310150198,0.4244860709000002,-0.0712677307459999,0.0977586941390001
1699310150214,0.4356515609000002,-0.0704215219459999,0.0971131849390001
1699310150227,0.4465634609000001,-0.0691167729459999,0.0961944185390001
1699310150242,0.4570940609000001,-0.0674169629459999,0.0950027165390001
1699310150256,0.4674113209000001,-0.0655059159459999,0.0936033015390001
1699310150268,0.4776123809000001,-0.0638174879459999,0.0919145105390001
1699310150282,0.4875407769000001,-0.0622957429459999,0.0898970435390001
1699310150296,0.4972691609000001,-0.0608248719459999,0.0874612635390001
1699310150311,0.5065765839000002,-0.0595305299459999,0.0845083385390001
1699310150325,0.5156785849000002,-0.0581608439459999,0.0811305155390001
1699310150340,0.5245545169000002,-0.0565633769459999,0.0773609735390001
1699310150353,0.5329968279000002,-0.0547148489459999,0.0731175635390001
1699310150367,0.5412166559000002,-0.0526711299459999,0.0683370945390001
1699310150380,0.5490705569000003,-0.0508068199459999,0.0628615935390001
1699310150393,0.5566420809000003,-0.0489660729459999,0.0566330815390001
1699310150408,0.5636321349000003,-0.0470700559459999,0.0495172355390001
1699310150421,0.5703711899000004,-0.0450679649459999,0.0414947045390001
1699310150440,0.5767688919000004,-0.0422803739459999,0.0327038515390001
1699310150449,0.5827256359000004,-0.0388635569459999,0.0231935025390001
1699310150463,0.5880964619000004,-0.0345444939459999,0.0131141725390001
1699310150476,0.5930537899000005,-0.0295785359459999,0.0024868325390001
1699310150490,0.5970547499000005,-0.0242431109459999,-0.0085858874609998
1699310150505,0.6004863969000005,-0.0188984049459999,-0.0195918274609998
1699310150518,0.6029106649000004,-0.0138841189459999,-0.0303342074609998
1699310150532,0.6041826239000004,-0.0094541899459999,-0.0408714874609998
1699310150546,0.6047472048000004,-0.0058916329459999,-0.0510010374609998
1699310150562,0.6043329505000005,-0.0033601979459999,-0.0607260684609998
1699310150577,0.6029238455000004,-0.0016132119459999,-0.0700250504609999
1699310150590,0.6005668395000004,-0.0006929928459999,-0.0791263784609999
1699310150604,0.5973529255000004,-0.0001029137459999,-0.0879716244609999
1699310150617,0.5929495195000004,0.000423448554,-0.0969093814609999
1699310150630,0.5879317575000004,0.000650501154,-0.1057818024609999
1699310150644,0.5822704515000003,0.000809744354,-0.1145902024609999
1699310150659,0.5761509515000003,0.000789621704,-0.1233751744609999
1699310150673,0.5695642885000003,0.000523028004,-0.1321039544609999
1699310150685,0.5628175415000003,-9.465169599994676e-05,-0.1406487214609999
1699310150700,0.5559721675000003,-0.0007228792959999,-0.1492162864609999
1699310150714,0.5491905805000004,-0.0013014594959999,-0.1577855574609999
1699310150728,0.5427412775000003,-0.0016914536959999,-0.1663418334609999
1699310150742,0.5367561115000004,-0.0017487476459999,-0.1750394154609999
1699310150756,0.5313447215000003,-0.0011357357459999,-0.1838933744609999
1699310150770,0.5264913535000003,0.000162700254,-0.1926846334609999
1699310150783,0.5220616395000003,0.001959997254,-0.2014992084609999
1699310150797,0.5185328355000003,0.003833863254,-0.2099481734609999
1699310150812,0.5151783735000003,0.005471357254,-0.2182272624609998
1699310150824,0.5124274965000003,0.006458560454,-0.2262453774609998
1699310150838,0.5102400735000003,0.006893006454,-0.2341042554609999
1699310150852,0.5088550125000003,0.006598715554,-0.2417879454609998
1699310150867,0.5079781150000003,0.005710363754,-0.2493799904609998
1699310150881,0.5073986935000003,0.004958310754,-0.2570302934609998
1699310150895,0.5075488610000003,0.004775183354,-0.2645914434609999
1699310150909,0.5080817899000003,0.005495079354,-0.2720517844609998
1699310150921,0.5087678136000003,0.006606879354,-0.2795848604609998
1699310150935,0.5094587976000003,0.007805439354,-0.2870886684609998
1699310150950,0.5101506646000004,0.008882768354,-0.2945388024609998
1699310150965,0.5107806151000004,0.009809257554,-0.3018073704609998
1699310150979,0.5111441942000003,0.010549032654,-0.3089463514609998
1699310150993,0.5108797151000003,0.010831991254,-0.3160683574609998
1699310151006,0.5100718810000003,0.010990226354,-0.3230879084609998
1699310151019,0.5086036800000003,0.011251422854,-0.3298826624609998
1699310151034,0.5064382800000004,0.011706746054,-0.3364660794609998
1699310151048,0.5032579520000003,0.012925290054,-0.3429063304609998
1699310151061,0.4995084110000003,0.014571767054,-0.3490721754609998
1699310151076,0.4951093700000003,0.016376275054,-0.3549648164609998
1699310151089,0.4901527870000003,0.017935436054,-0.3607641604609998
1699310151104,0.4845436490000003,0.019347923054,-0.3662838314609998
1699310151117,0.4784582000000003,0.020614028054,-0.3715239464609998
1699310151130,0.4720147140000003,0.021688090054,-0.3764021604609998
1699310151144,0.4652824800000003,0.022453369654,-0.3808029264609998
1699310151157,0.4584199010000003,0.022918069354,-0.3847121824609998
1699310151172,0.4514384640000003,0.023185185054,-0.3881275824609998
1699310151186,0.4443018470000003,0.023118281164,-0.3910836964609998
1699310151201,0.4371016240000003,0.023074798104,-0.3935091764609998
1699310151214,0.4296638680000003,0.022481387104,-0.3953803904609998
1699310151229,0.4219617070000003,0.021650654904,-0.3967196124609998
1699310151242,0.4143415890000003,0.020578711904,-0.3974518472609998
1699310151255,0.4064918630000003,0.019567793904,-0.3975249849509998
1699310151269,0.3985599390000003,0.018335605904,-0.3969653898509998
1699310151283,0.3902583050000003,0.016994210904,-0.3955372418509998
1699310151297,0.3816364330000003,0.015594555904,-0.3932923368509998
1699310151312,0.3727404990000003,0.014056795904,-0.3902476768509998
1699310151326,0.3636523300000003,0.012117430904,-0.3866192398509998
1699310151339,0.3544169930000003,0.009762258904,-0.3823141768509998
1699310151354,0.3448164360000003,0.007423058904,-0.3776199928509998
1699310151367,0.3347635760000003,0.005052104904,-0.3726337928509998
1699310151379,0.3247491760000003,0.002595195904,-0.3674253798509998
1699310151394,0.3147719870000003,-0.0001486260959999,-0.3621626348509998
1699310151409,0.3049935970000003,-0.0029200660959999,-0.3567117998509998
1699310151422,0.2952234820000003,-0.0055253100959999,-0.3510046928509998
1699310151437,0.2856597480000003,-0.0081799260959999,-0.3452055078509998
1699310151450,0.2763533220000003,-0.0108589170959999,-0.3393555168509998
1699310151463,0.2674814830000003,-0.0136579360959999,-0.3334833728509998
1699310151477,0.2591626150000004,-0.0163090710959999,-0.3275961498509998
1699310151492,0.2510332200000004,-0.0190635390959999,-0.3219643848509998
1699310151506,0.2432840360000004,-0.0216302520959999,-0.3165545218509998
1699310151519,0.2358796670000004,-0.0241741010959999,-0.3114515538509998
1699310151533,0.2285871240000004,-0.0266341210959999,-0.3065401438509998
1699310151546,0.2217197550000003,-0.0284300300959999,-0.3018235738509998
1699310151561,0.2154641480000003,-0.0298678420959999,-0.2972011908509998
1699310151575,0.2095334790000003,-0.0312830630959999,-0.2928427748509998
1699310151588,0.2039223730000003,-0.0327786130959999,-0.2885666158509998
1699310151602,0.1988672850000003,-0.0341131100959999,-0.2845947788509999
1699310151616,0.1939373740000003,-0.0359275640959999,-0.2809027208509999
1699310151630,0.1891013130000003,-0.0378040610959999,-0.2775553758509999
1699310151645,0.1842191110000003,-0.0399751030959999,-0.2745184918509998
1699310151658,0.1799254770000003,-0.0424961500959999,-0.2716075108509999
1699310151671,0.1755036700000003,-0.0449565240959999,-0.2689213328509999
1699310151685,0.1710884500000003,-0.0466893420959999,-0.2662585578509999
1699310151700,0.1667243310000003,-0.0478429760959999,-0.2638078168509999
1699310151714,0.1623093070000003,-0.0482558362959999,-0.2616144278509999
1699310151729,0.1578553630000004,-0.0483085066359999,-0.2594831988509999
1699310151744,0.1535474730000003,-0.0485266611359999,-0.2575245168509999
1699310151756,0.1493391380000003,-0.0488224545359999,-0.2555722878509999
1699310151770,0.1452844880000003,-0.0491831509359999,-0.2534883318509999
1699310151783,0.1412566880000003,-0.0495538283359999,-0.2512352248509999
1699310151796,0.1376446100000004,-0.0498733501359999,-0.2486479618509999
1699310151811,0.1341726750000003,-0.0499667093559999,-0.2458764278509999
1699310151828,0.1309909140000003,-0.0500818716559999,-0.2429683258509999
1699310151839,0.1281754470000004,-0.0505787991559999,-0.2398745838509999
1699310151853,0.1257068830000003,-0.0511713316559999,-0.2363784798509999
1699310151867,0.1234049600000003,-0.0515637820559999,-0.2324546108509999
1699310151880,0.1215198150000003,-0.0520816159559999,-0.2281812118509999
1699310151894,0.1199093580000003,-0.0527246521559999,-0.2235838628509999
1699310151909,0.1184490910000003,-0.0534812076559999,-0.2187719518509999
1699310151922,0.1171439860000003,-0.0544275650559999,-0.2138315028509999
1699310151936,0.1162458765000003,-0.0555973820559999,-0.2087468038509999
1699310151950,0.1156310570000003,-0.0568083300559999,-0.2037567308509998
1699310151964,0.1153386736000003,-0.0580747820559999,-0.1987134868509998
1699310151977,0.1152304913000003,-0.0591289000559999,-0.1937224238509999
1699310151990,0.1156690606000003,-0.0596315282559999,-0.1889253038509999
1699310152005,0.1167826516000003,-0.0598538563559999,-0.1843853448509999
1699310152020,0.1183174936000003,-0.0599797557559999,-0.1800140538509999
1699310152035,0.1200641456000003,-0.0599949937659999,-0.1760013998509998
1699310152048,0.1220582176000003,-0.0597994304659999,-0.1720631188509999
1699310152065,0.1241538846000003,-0.0597486988159999,-0.1682187228509999
1699310152076,0.1263390406000003,-0.0600258261159999,-0.1643568178509999
1699310152089,0.1285091016000003,-0.0601384320159999,-0.1604185608509999
1699310152103,0.1304588346000003,-0.0597629341159999,-0.1563342188509999
1699310152117,0.1324984956000003,-0.0593365356159999,-0.1520433648509999
1699310152132,0.1344064926000003,-0.0590602148159999,-0.1475856308509999
1699310152146,0.1360904836000003,-0.0588196632159999,-0.1432997548509999
1699310152160,0.1376181376000003,-0.0584676887159999,-0.1390752398509999
1699310152174,0.1389714436000003,-0.0584417854359999,-0.1351035408509999
1699310152188,0.1400737656000003,-0.0585449255359999,-0.1313947588509999
1699310152199,0.1412442496000003,-0.0590004288359999,-0.1277613618509999
1699310152214,0.1424588696000003,-0.0597485563359999,-0.1242549598509999
1699310152228,0.1435875166000003,-0.0605961683359999,-0.1208929188509999
1699310152243,0.1446396606000003,-0.0615246669359999,-0.1176597058509999
1699310152256,0.1455353907000003,-0.0628497399359999,-0.1147409578509999
1699310152271,0.1463205374000003,-0.0643563579359999,-0.1120198038509999
1699310152284,0.1471934952000003,-0.0661679349359999,-0.1096297728509999
1699310152297,0.1481376045000003,-0.0675762429359999,-0.1075471258509999
1699310152310,0.1492365805000003,-0.0683475275359999,-0.1058749978509999
1699310152325,0.1505214185000003,-0.0686548661359999,-0.1043933678509999
1699310152340,0.1521505785000003,-0.0683178430359999,-0.1031514518509999
1699310152354,0.1540177655000003,-0.0675027970359999,-0.1020961598509999
1699310152369,0.1560110335000003,-0.0663859760359999,-0.1012626262509999
1699310152381,0.1583418935000003,-0.0651205750359999,-0.1003090830509999
1699310152394,0.1607963965000003,-0.0635635470359999,-0.0995159337509999
1699310152409,0.1635625355000003,-0.0621752780359999,-0.0986412665509999
1699310152424,0.1662339045000003,-0.0609381300359999,-0.0980462979509999
1699310152437,0.1689222885000003,-0.0595341720359999,-0.0974951208509999
1699310152451,0.1721684105000002,-0.0580137990359999,-0.0967205302509999
1699310152464,0.1756489045000002,-0.0567307480359999,-0.0958768472509999
1699310152477,0.1790922055000003,-0.0559784870359999,-0.0950445569509999
1699310152492,0.1823787715000003,-0.0553769971359999,-0.0942020473509999
1699310152506,0.1856539755000003,-0.0551098304359999,-0.0931570903509999
1699310152520,0.1888904295000003,-0.0547743122359999,-0.0918156403509999
1699310152534,0.1923154645000002,-0.0545237691359999,-0.0901577093509999
1699310152548,0.1954476905000002,-0.0545153137009999,-0.0885498843509999
1699310152562,0.1985952575000002,-0.0549868096009999,-0.0868549183509999
1699310152576,0.2018350275000002,-0.0558949377009999,-0.0850891353509999
1699310152590,0.2051194455000002,-0.0567897984009999,-0.0832897213509999
1699310152604,0.2082681385000002,-0.0576983386009999,-0.0815236463509999
1699310152617,0.2114011125000003,-0.0583043309009999,-0.0797229673509999
1699310152631,0.2144259465000003,-0.0582787848109999,-0.0778102993509999
1699310152644,0.2175177705000003,-0.0576769073109999,-0.0757701213509999
1699310152658,0.2204766335000003,-0.0565462963109999,-0.0737532083509999
1699310152674,0.2232239955000003,-0.0557278994109999,-0.0718106533509999
1699310152688,0.2257537685000003,-0.0552124317109999,-0.0699368633509999
1699310152701,0.2283602535000003,-0.0549860442109999,-0.0679200653509999
1699310152715,0.2309102985000003,-0.0546309429109999,-0.0657094253509999
1699310152729,0.2334384405000003,-0.0542426564109999,-0.0634806713509999
1699310152743,0.2360108145000003,-0.0534645297109999,-0.0611359013509999
1699310152758,0.2386523245000003,-0.0525269429109999,-0.0588200163509999
1699310152771,0.2415763595000003,-0.0517403704109999,-0.0565053363509999
1699310152784,0.2446040815000003,-0.0510150452109999,-0.0542451163509999
1699310152799,0.2478364735000003,-0.0504763307109999,-0.0520858273509999
1699310152813,0.2512965075000003,-0.0502184497109999,-0.0499318303509999
1699310152826,0.2548609635000003,-0.0500835567109999,-0.0478026823509999
1699310152840,0.2586241165000003,-0.0498130440109999,-0.0455111343509999
1699310152853,0.2625347865000003,-0.0498908130109999,-0.0431181723509999
1699310152868,0.2666185975000003,-0.0500789879109999,-0.0405254813509999
1699310152882,0.2707852945000003,-0.0504188007109999,-0.0378069643509999
1699310152896,0.2752864475000003,-0.0510685614109999,-0.0346301633509999
1699310152909,0.2796717865000003,-0.0519020940109999,-0.0311593463509999
1699310152923,0.2838932265000003,-0.0523479539109999,-0.0272004593509999
1699310152937,0.2883414855000003,-0.0526913654109999,-0.0229874373509999
1699310152951,0.2927118755000003,-0.0530266341109999,-0.0186807833509999
1699310152966,0.2971104725000003,-0.0533595139109999,-0.0144996163509999
1699310152980,0.3015235015000003,-0.0536640918109999,-0.0105462123509999
1699310152997,0.3058061425000003,-0.0539981127109999,-0.0068547583509999
1699310153006,0.3100769675000003,-0.0541495870109999,-0.0034383033509999
1699310153020,0.3145331395000003,-0.0542487523209999,-0.0002191483509999
1699310153034,0.3191654605000003,-0.0542703951509999,0.002718970649
1699310153048,0.3238879475000003,-0.0546745126509999,0.005295724649
1699310153061,0.3284333555000002,-0.0555339357509999,0.007287836649
1699310153076,0.3328995785000002,-0.0566396467509999,0.008798148649
1699310153090,0.3371675555000002,-0.0578495447509999,0.009820144649
1699310153103,0.3414524975000002,-0.0590201267509999,0.010644699849
1699310153118,0.3455813965000002,-0.0599077001509999,0.011018950649
1699310153132,0.3496257095000002,-0.0606099625509999,0.010823816249
1699310153145,0.3535396475000003,-0.0608400247509999,0.010131559449
1699310153160,0.3574631585000002,-0.0604777419509999,0.009075157449
1699310153174,0.3610211725000002,-0.0594985679509999,0.007503533449
1699310153188,0.3644719975000002,-0.0584861639509999,0.005728110449
1699310153202,0.3677503585000002,-0.0570701299509999,0.004002488449
1699310153216,0.3709884195000003,-0.0557440649509999,0.002282287449
1699310153233,0.3739632355000002,-0.0547087109509999,0.000521128449
1699310153245,0.3766150615000003,-0.0539010427509999,-0.0012207035509999
1699310153256,0.3790954085000003,-0.0534706129509999,-0.0029035345509999
1699310153270,0.3813895505000003,-0.0531719595509999,-0.0044985835509999
1699310153284,0.3838334555000003,-0.0529016297509999,-0.0058318805509999
1699310153300,0.3860056945000003,-0.0525702935509999,-0.0069852345509999
1699310153313,0.3879139845000003,-0.0520650866509999,-0.0079644567509999
1699310153328,0.3894603225000003,-0.0513509971509999,-0.0086089623509999
1699310153342,0.3908344105000003,-0.0506085908509999,-0.0089491225509999
1699310153355,0.3919582535000003,-0.0503457658509999,-0.0090200021709999
1699310153368,0.3925602235000003,-0.0503159413109999,-0.0088540698709999
1699310153384,0.3927818100000003,-0.0505029923109999,-0.0085536201709999
1699310153397,0.3926781908000002,-0.0509508648109999,-0.0080315382709999
1699310153409,0.3923285292000003,-0.0512310595109999,-0.0071297180709999
1699310153424,0.3918839556000003,-0.0511815577409999,-0.0058385450709999
1699310153438,0.3914002876000003,-0.0505874719409999,-0.0041530990709999
1699310153452,0.3908000557000002,-0.0496883435409999,-0.0020728620709999
1699310153464,0.3900082576000002,-0.0485397935409999,0.000424600929
1699310153478,0.3890438497000002,-0.0475836866409999,0.003073995929
1699310153494,0.3878304197000002,-0.0469907781409999,0.005872864929
1699310153508,0.3862351237000002,-0.0467734927409999,0.008812011929
1699310153519,0.3844051307000002,-0.0468091735709999,0.011974810929
1699310153534,0.3823099817000002,-0.0471876321709999,0.015239048929
1699310153549,0.3800713487000002,-0.0477315585709999,0.018733918929
1699310153562,0.3777838717000002,-0.0482046705709999,0.022503291929
1699310153577,0.3752048827000002,-0.0484174507709999,0.026500432929
1699310153591,0.3725573207000002,-0.0482119345709999,0.030878529929
1699310153604,0.3697755047000002,-0.0480469425709999,0.035415022929
1699310153618,0.3669239237000002,-0.0482453284709999,0.040176943929
1699310153632,0.3637552367000002,-0.0489017908709999,0.045080361929
1699310153646,0.3603978387000002,-0.0500398948709999,0.050178642929
1699310153660,0.3567204417000002,-0.0514749778709999,0.055447500929
1699310153674,0.3529642017000002,-0.0528983528709999,0.060954705929
1699310153687,0.3491205397000002,-0.0542515128709999,0.066500756929
1699310153703,0.3448149477000001,-0.0554724278709999,0.072061992929
1699310153716,0.3404172687000001,-0.0565464858709999,0.078047776929
1699310153729,0.3355163867000001,-0.0579884618709999,0.084454756929
1699310153743,0.3305157867000001,-0.0593382728709999,0.091548948929
1699310153758,0.3253194547000001,-0.0609902068709999,0.099094660929
1699310153772,0.3201905337000001,-0.0631809648709999,0.107010671929
1699310153785,0.3150665647000001,-0.0653399428709999,0.115246395929
1699310153799,0.3098670217000001,-0.0674916568709999,0.123645266929
1699310153813,0.3044948557000001,-0.0693459288709999,0.132034271929
1699310153826,0.2992545887000001,-0.0707125568709999,0.140502547929
1699310153841,0.2939312397000001,-0.0719678858709999,0.148996533929
1699310153856,0.2888151557000001,-0.0732562358709999,0.157673203929
1699310153867,0.2837190827000001,-0.0748119138709999,0.166461811929
1699310153880,0.2787102627000001,-0.0768719268709999,0.175319899929
1699310153895,0.2737092277000001,-0.0792512918709999,0.184377100929
1699310153910,0.2682984817000001,-0.0820271188709999,0.193482287929
1699310153924,0.2625284647000001,-0.0849181828709998,0.202675403929
1699310153941,0.2564523957,-0.0874178488709998,0.212151867929
1699310153952,0.2498908937,-0.0895109258709998,0.221747826929
1699310153966,0.2428535357,-0.0912612888709999,0.231391673929
1699310153980,0.2352596017,-0.0926824388709998,0.241501483929
1699310153994,0.2271923437,-0.0935916829709998,0.251857123929
1699310154008,0.2185404317,-0.0943449514709998,0.262631483929
1699310154020,0.2094292417,-0.0950540454709998,0.273759113929
1699310154034,0.1998326917,-0.0957163181709998,0.285517323929
1699310154048,0.1900358527,-0.0965958405709998,0.297700483929
1699310154063,0.1795903727,-0.0974498508709998,0.310275493929
1699310154078,0.1686932027,-0.0982164845709998,0.323290593929
1699310154091,0.1571541327,-0.0987454821709998,0.336861813929
1699310154104,0.1450973527,-0.0986052837709998,0.351023433929
1699310154118,0.1322749427,-0.0981822795709998,0.365916283929
1699310154133,0.1186643827,-0.0978070649709998,0.381545823929
1699310154147,0.1041897127,-0.0978272071509998,0.397796343929
1699310154160,0.0890548327,-0.0980875640509998,0.414795723929
1699310154173,0.0733456127,-0.0985273677509998,0.432814353929
1699310154188,0.0569189627,-0.0994264163509998,0.451705953929
1699310154201,0.0394673327,-0.1003197698509998,0.471444473929
1699310154216,0.0212416927,-0.1015494728509998,0.492025123929
1699310154230,0.0022635127,-0.1029585538509998,0.513722243929
1699310154246,-0.0174914672999999,-0.1040526988509998,0.536487553929
1699310154257,-0.0378136872999999,-0.1053518348509998,0.560111353929
1699310154271,-0.0590554272999999,-0.1065562488509998,0.584642343929
1699310154286,-0.0811675372999999,-0.1079035408509998,0.610095263929
1699310154299,-0.1042646172999999,-0.1097842488509998,0.636422063929
1699310154312,-0.1285287772999999,-0.1120313738509998,0.663701263929
1699310154325,-0.1538239472999999,-0.1144525448509998,0.692047463929
1699310154342,-0.1802290572999999,-0.1172130948509998,0.721488813929
1699310154355,-0.2075893572999999,-0.1205483738509998,0.751857433929
1699310154370,-0.2357287872999999,-0.1241700528509998,0.7833745539289999
1699310154383,-0.2648241972999999,-0.1278206798509998,0.8160231239289999
1699310154397,-0.2948790672999999,-0.1317685478509998,0.8497004839289999
1699310154410,-0.3257464872999999,-0.1360101168509998,0.8843865539289999
1699310154424,-0.3573261972999999,-0.1405720338509998,0.920021883929
1699310154439,-0.3894572172999999,-0.1451674748509998,0.9567031539289998
1699310154451,-0.4222482872999999,-0.1495143688509998,0.9942825839289998
1699310154466,-0.4557781072999999,-0.1536164288509998,1.032957373929
1699310154482,-0.4897444372999999,-0.1572093038509998,1.0730381339289998
1699310154493,-0.5242525872999999,-0.1603660878509998,1.1147187239289995
1699310154506,-0.5594265873,-0.1630193158509998,1.1578368939289998
1699310154520,-0.5954248972999999,-0.1655114548509998,1.2028673239289998
1699310154535,-0.6323896373,-0.1677505158509998,1.2499747739289997
1699310154550,-0.6701619473,-0.1695292138509998,1.2994254639289995
1699310154563,-0.7088920173,-0.1718052218509998,1.3510952839289998
1699310154577,-0.7487974372999999,-0.1749587438509998,1.4048848939289995
1699310154591,-0.7898985772999999,-0.1789921778509998,1.4607360539289995
1699310154604,-0.8321520072999999,-0.1835183398509998,1.5187557839289998
1699310154617,-0.8758354673,-0.1882494298509998,1.5789142639289997
1699310154632,-0.9209260173,-0.1932922868509998,1.6411925839289996
1699310154645,-0.9669458873,-0.1982786078509998,1.7057709739289997
1699310154660,-1.0139454273,-0.2037244018509998,1.7723540439289998
1699310154673,-1.0619331873,-0.2093058338509998,1.840968063929
1699310154687,-1.1108025873,-0.2151454708509998,1.911627293929
1699310154701,-1.1608331273,-0.2213523438509998,1.984575623929
1699310154716,-1.2120918673,-0.2283404118509998,2.059809103929
1699310154729,-1.2648138173,-0.2362713208509998,2.1372310339289995
1699310154744,-1.3189443373,-0.2442822698509998,2.2172114639289995
1699310154757,-1.3744097273,-0.2523723108509998,2.299708213929
1699310154771,-1.4313454573,-0.2608745918509998,2.384800013928999
1699310154785,-1.4896722073,-0.2694250148509998,2.472562253928999
1699310154800,-1.5497013773,-0.2780939968509998,2.563088383929
1699310154814,-1.6114348173,-0.2870948318509997,2.656484123929
1699310154828,-1.6748940273,-0.2963268628509997,2.752888113928999
1699310154841,-1.7397518173,-0.3057738328509997,2.852707193928999
1699310154855,-1.8063304473,-0.3156425828509997,2.955820493928999
1699310154870,-1.8745551673,-0.3261805628509997,3.062136293928999
1699310154882,-1.9444610373,-0.3378103828509997,3.171454593928999
1699310154897,-2.0156471373,-0.3505175828509997,3.283881693928999
1699310154909,-2.0877771673,-0.3644421228509997,3.3992048939289994
1699310154924,-2.1609204672999995,-0.3802808328509997,3.516867093928999
1699310154939,-2.2340030673,-0.3987245328509997,3.6367859939289993
1699310154952,-2.3065954573,-0.4201349828509997,3.7587899939289993
1699310154965,-2.3779190873,-0.4441550328509997,3.8833514939289993
1699310154978,-2.4475182573,-0.4710127728509997,4.010761793929
1699310154994,-2.5145583473,-0.5009426028509998,4.141035493929
1699310155008,-2.5788579973,-0.5337393528509998,4.274118793929
1699310155022,-2.6396911073,-0.5685813428509998,4.410117593929
1699310155035,-2.6971642073,-0.6051815628509998,4.548522193929
1699310155049,-2.7508732973,-0.6426287628509998,4.689505293929
1699310155064,-2.8008599173,-0.6803131528509998,4.832785093929
1699310155077,-2.8473878373,-0.7173633728509998,4.978289193929
1699310155090,-2.8903052773,-0.7525055328509999,5.126470393929
1699310155105,-2.9300755373,-0.7850036028509999,5.277433693929
1699310155118,-2.9668217073,-0.8141820628509999,5.431198393929
1699310155133,-3.0008930473,-0.8408881228509999,5.587521593929
1699310155147,-3.0322955373,-0.8648886028509999,5.746609293929
1699310155160,-3.0608635773,-0.8861001028509999,5.908709693929
1699310155175,-3.0866137173,-0.903831912851,6.074487293929
1699310155189,-3.1096673073,-0.917449082851,6.244255693929
1699310155203,-3.1301765473,-0.927254023851,6.418100193929
1699310155216,-3.1477442673,-0.933829780851,6.596657693929
1699310155230,-3.1625367073,-0.937507573851,6.780537593929
1699310155244,-3.1745195573,-0.938181506651,6.970580993929
1699310155256,-3.1838351863,-0.936177741651,7.167380393929
1699310155271,-3.1907609073,-0.932811763651,7.371417593929
1699310155285,-3.1949952433,-0.929522789651,7.583608193929001
1699310155300,-3.1969496203000003,-0.927651495651,7.804327693929001
1699310155313,-3.1970343632,-0.927909880951,8.033946093929002
1699310155328,-3.1956046822000004,-0.930800252951,8.272298393929002
1699310155343,-3.1934284612000003,-0.937108638951,8.519660493929003
1699310155355,-3.1906947572,-0.947132158951,8.775395293929003
1699310155369,-3.1876765642,-0.961073868951,9.039908893929004
1699310155382,-3.1843738262000003,-0.978498618951,9.313236493929004
1699310155397,-3.1810349342000004,-0.997702828951,9.595602693929004
1699310155410,-3.1782786102000005,-1.017938338951,9.885906493929005
1699310155425,-3.1760351142000003,-1.038465408951,10.183660993929005
1699310155441,-3.1744544622000004,-1.058266518951,10.488738293929003
1699310155452,-3.1732668732,-1.0766946189509998,10.800538593929003
1699310155465,-3.1721317292,-1.0939929589509998,11.118502593929003
1699310155480,-3.1707536172000004,-1.1104867889509995,11.443114293929003
1699310155497,-3.1683534652000005,-1.1255057789509997,11.774817493929003
1699310155509,-3.1644534852000006,-1.1379479789509996,12.114215493929004
1699310155520,-3.1588043952000007,-1.1484545989509996,12.460958293929004
1699310155536,-3.1514158812000006,-1.1580554689509996,12.815015293929005
1699310155550,-3.1416382832000007,-1.1679887399509996,13.176648593929002
1699310155562,-3.1292703632000007,-1.1784518099509995,13.545519593929004
1699310155577,-3.1136858432000007,-1.1890559499509996,13.922554793929002
1699310155590,-3.0943424132000006,-1.1997401099509997,14.307516893929002
1699310155605,-3.0710994932000006,-1.2105872199509995,14.700635293929002
1699310155619,-3.0441237832000008,-1.2214677899509998,15.101896693929
1699310155634,-3.013513873200001,-1.231661709951,15.511423093929002
1699310155650,-2.9792686232000007,-1.241450397951,15.929701093929005
1699310155661,-2.9416049632000005,-1.2507456839509998,16.356230093929003
1699310155674,-2.9007164532000007,-1.2596747299509998,16.789878693929005
1699310155688,-2.857138633200001,-1.2682892589509998,17.230447293929004
1699310155702,-2.811355463200001,-1.2749987419509998,17.678423793929003
1699310155716,-2.7637371932000008,-1.275155700551,18.135645093929003
1699310155731,-2.7145476032000007,-1.259428210551,18.604461493929005
1699310155745,-2.663379773200001,-1.218815600551,19.086917893929005
1699310155759,-2.6104332332000006,-1.159653610551,19.58006129392901
1699310155772,-2.5558219332000007,-1.089494580551,20.082881493929005
1699310155786,-2.498984583200001,-1.0120742305510002,20.594560993929004
1699310155801,-2.440423243200001,-0.9280460805510002,21.115712393929005
1699310155814,-2.380843123200001,-0.8383687705510002,21.645917793929005
1699310155828,-2.321138823200001,-0.7472569305510002,22.183067393929004
1699310155842,-2.262403333200001,-0.6599958905510002,22.724317293929005
1699310155855,-2.205835313200001,-0.5807261605510001,23.267423593929006
1699310155869,-2.152791863200001,-0.5080482705510001,23.810698693929005
1699310155884,-2.105537773200001,-0.4397170205510001,24.354197193929004
1699310155895,-2.0653284432000008,-0.3761541305510001,24.897122093929003
1699310155910,-2.0333926132000006,-0.3219745705510001,25.437199193929004
1699310155925,-2.0113746732000006,-0.2844377605510001,25.971614593929004
1699310155939,-1.9995932232000009,-0.2668493805510001,26.498861693929005
1699310155952,-1.9978121992000009,-0.2682804415510001,27.018272393929006
1699310155967,-2.0032508772000006,-0.2835452315510001,27.530840393929008
1699310155981,-2.0118906752000005,-0.3045569815510001,28.037374093929007
1699310155994,-2.0224096952000004,-0.3259943315510001,28.53756919392901
1699310156009,-2.0359306352,-0.3444195415510001,29.030075393929007
1699310156020,-2.0547262152,-0.3594901615510001,29.513510493929008
1699310156036,-2.0794736652,-0.3698367515510001,29.98750449392901
1699310156050,-2.1097992752,-0.3731526535510001,30.45287669392901
1699310156064,-2.1457239752,-0.367409911551,30.91162369392901
1699310156078,-2.1878958452,-0.351598911551,31.365522593929008
1699310156091,-2.2371570052,-0.327414031551,31.815727193929007
1699310156105,-2.2934903352,-0.298000771551,32.262741393929005
1699310156118,-2.3556367252,-0.267190101551,32.707605593929
1699310156133,-2.4229982252,-0.238293611551,33.151197393929
1699310156147,-2.4946534352,-0.213444981551,33.595050093929004
1699310156162,-2.5697997552,-0.193603511551,34.040560393929006
1699310156175,-2.6480553952,-0.180165791551,34.488973793929006
1699310156189,-2.7279983752000003,-0.174406274551,34.94163879392901
1699310156202,-2.8089751252000004,-0.177196650551,35.39896879392901
1699310156216,-2.8903677952000004,-0.188916390551,35.861387193929005
1699310156230,-2.9723960652000003,-0.208821430551,36.329113993929006
1699310156244,-3.0551716552,-0.236498100551,36.802696493929005
1699310156259,-3.1398218452,-0.270261810551,37.282453993929
1699310156274,-3.2269177052,-0.308370740551,37.768676393929006
1699310156286,-3.3166719252,-0.3494332005510001,38.26142879392901
1699310156301,-3.4095818452,-0.3928575205510001,38.76108749392901
1699310156314,-3.5055037152,-0.4383969405510001,39.26696849392901
1699310156327,-3.6046345852,-0.4865920505510001,39.777825293929006
1699310156341,-3.7078517852,-0.538212310551,40.293021993929
1699310156354,-3.8157231852,-0.591507710551,40.81192919392901
1699310156369,-3.929097585200001,-0.643039170551,41.334723293929
1699310156383,-4.048264885200001,-0.690628170551,41.861366793929
1699310156396,-4.173613285200001,-0.733754410551,42.392119593929
1699310156411,-4.304561885200001,-0.773814080551,42.92653689392901
1699310156425,-4.441648885200001,-0.8116952605509999,43.464079193929
1699310156439,-4.584755585200001,-0.8472987705509999,44.005001393929
1699310156452,-4.733698185200001,-0.8800116505509998,44.549342193929
1699310156467,-4.887996085200001,-0.910330370551,45.097423093929
1699310156480,-5.047128485200001,-0.9389623405509998,45.648900493929006
1699310156494,-5.210791985200001,-0.966867800551,46.20402779392901
1699310156509,-5.379446885200001,-0.995215690551,46.762774193929005
1699310156522,-5.553514885200001,-1.024906640551,47.32502609392901
1699310156536,-5.7335071852000015,-1.0568535405509998,47.890446293929
1699310156551,-5.9191334852000015,-1.0891399805509998,48.458983793929
1699310156565,-6.109318985200002,-1.1112460505509998,49.033124793929
1699310156578,-6.302549185200002,-1.1050428355509998,49.616749193929
1699310156592,-6.497010485200002,-1.074902955551,50.206402893929
1699310156606,-6.6915872852000025,-1.031094865551,50.80071319392899
1699310156619,-6.8853364852000025,-0.978864045551,51.39771439392899
1699310156633,-7.077156785200002,-0.915353235551,51.99909679392899
1699310156647,-7.264488385200003,-0.8409294455509999,52.60577689392899
1699310156661,-7.445975685200002,-0.7646776655509999,53.21503019392899
1699310156674,-7.620011685200002,-0.6984308055509999,53.823308093928986
1699310156688,-7.785975085200002,-0.6527049255509999,54.426208793928986
1699310156705,-7.942828485200002,-0.6347744655509999,55.02089789392898
1699310156716,-8.090812385200003,-0.6381405215509999,55.60812979392898
1699310156730,-8.228647685200004,-0.6517127015509999,56.18989709392898
1699310156744,-8.356725785200004,-0.6638554915509999,56.76761339392898
1699310156757,-8.475321285200003,-0.6700472555509999,57.34147889392898
1699310156772,-8.585684785200003,-0.6714822125509998,57.90959469392898
1699310156786,-8.690040985200003,-0.6704273495509998,58.47060049392898
1699310156800,-8.790691085200002,-0.6645126135509998,59.024389693928974
1699310156814,-8.889325045200003,-0.6492756635509997,59.571229393928974
1699310156827,-8.987443095200003,-0.6231105435509997,60.112414093928976
1699310156841,-9.085500515200003,-0.5865589535509997,60.64844929392898
1699310156855,-9.183377905200004,-0.5438082435509998,61.180297993928974
1699310156869,-9.280523295200004,-0.4999016435509997,61.70878419392898
1699310156883,-9.376656615200003,-0.4602320635509997,62.23525039392898
1699310156900,-9.472131235200004,-0.4284100535509997,62.76107579392898
1699310156911,-9.567111975200003,-0.4061773735509997,63.28757579392898
1699310156925,-9.661272985200004,-0.3946743735509997,63.816082093928976
1699310156939,-9.754424615200003,-0.3950620629509997,64.34715139392898
1699310156952,-9.846304065200004,-0.4074122529509997,64.88154439392898
1699310156966,-9.937033545200004,-0.4317912629509997,65.41926249392898
1699310156980,-10.026453605200004,-0.4669996629509997,65.96090759392898
1699310156995,-10.114705125200004,-0.5098024529509997,66.50651579392898
1699310157009,-10.201685765200004,-0.5578483329509997,67.05660649392898
1699310157023,-10.286833025200004,-0.6097378929509997,67.61130639392898
1699310157036,-10.369346745200003,-0.6652085529509997,68.17086739392899
1699310157050,-10.448910325200004,-0.7233606329509997,68.73502159392899
1699310157063,-10.525103215200003,-0.7831882829509997,69.30388459392898
1699310157077,-10.597064995200004,-0.8438140929509997,69.87786609392899
1699310157092,-10.664906015200003,-0.9046932029509998,70.45653979392898
1699310157105,-10.728326495200005,-0.9657282329509996,71.03970639392898
1699310157120,-10.787767565200005,-1.0261511729509998,71.62748849392898
1699310157136,-10.843204155200002,-1.0855344929509998,72.22047339392898
1699310157147,-10.895113515200002,-1.1442170729509995,72.81849499392898
1699310157161,-10.943200815200004,-1.2021178429509998,73.42214399392898
1699310157175,-10.987453625200002,-1.2577599829509998,74.03242729392899
1699310157189,-11.028129105200003,-1.3099766229509997,74.65006899392898
1699310157203,-11.065448045200004,-1.3589949629509996,75.27536109392898
1699310157217,-11.098885695200003,-1.4052283429509995,75.90882499392897
1699310157231,-11.128500795200004,-1.4485407729509998,76.55051379392897
1699310157245,-11.153990555200002,-1.4878533229509998,77.20121189392897
1699310157261,-11.175316725200002,-1.522634812951,77.86065419392897
1699310157272,-11.1929952952,-1.553621432951,78.52795239392897
1699310157285,-11.2076517952,-1.580729262951,79.20268489392897
1699310157299,-11.2200858952,-1.604136612951,79.88429379392898
1699310157314,-11.2310277252,-1.624406592951,80.57214789392897
1699310157330,-11.2413410152,-1.6391156129509998,81.26608739392897
1699310157343,-11.2521689252,-1.6312647659509998,81.97045029392898
1699310157356,-11.2640715852,-1.578573995951,82.68867809392897
1699310157369,-11.2772260252,-1.489921345951,83.41583039392897
1699310157382,-11.2933012152,-1.378188045951,84.15167159392897
1699310157397,-11.3114809052,-1.244122945951,84.89310179392896
1699310157411,-11.3319000152,-1.098621845951,85.63876129392897
1699310157427,-11.3534814452,-0.952137445951,86.38616889392897
1699310157440,-11.3744119252,-0.815843245951,87.13093669392897
1699310157452,-11.3960373752,-0.702052545951,87.86784679392898
1699310157466,-11.4230180152,-0.621276325951,88.59192769392898
1699310157481,-11.4605428452,-0.579586415951,89.30022809392898
1699310157494,-11.5096929352,-0.564864555951,89.99578489392898
1699310157508,-11.5693190252,-0.558369275951,90.68110049392898
1699310157522,-11.6370026052,-0.544678775951,91.35958139392898
1699310157537,-11.7112881452,-0.523205555951,92.03246569392898
1699310157552,-11.7918875752,-0.499385115951,92.69751829392898
1699310157564,-11.8777479352,-0.477256315951,93.35445189392898
1699310157578,-11.9678360652,-0.457606235951,94.002823493929
1699310157592,-12.0606366052,-0.439218945951,94.642599393929
1699310157606,-12.1556029152,-0.420505985951,95.275350093929
1699310157620,-12.2533659252,-0.399970795951,95.902006593929
1699310157634,-12.3549273252,-0.377113665951,96.523961093929
1699310157647,-12.4616620252,-0.350307085951,97.141819593929
1699310157661,-12.5735572252,-0.321648885951,97.756579193929
1699310157675,-12.6905075252,-0.295092355951,98.368121593929
1699310157688,-12.8123209252,-0.2747611159509999,98.976631493929
1699310157702,-12.9385116252,-0.2640527159509999,99.582634693929
1699310157717,-13.0686749252,-0.2639755130309999,100.186826093929
1699310157731,-13.2027357252,-0.2753737730309999,100.790171293929
1699310157745,-13.3403641252,-0.2974190530309999,101.393428093929
1699310157761,-13.4810338252,-0.3293678030309999,101.997512493929
1699310157773,-13.6250319252,-0.3704103230309998,102.603049493929
1699310157786,-13.7737798252,-0.4194557830309998,103.210566993929
1699310157799,-13.9284788252,-0.4749752930309998,103.819813093929
1699310157813,-14.0898861252,-0.5367148830309998,104.43118029392902
1699310157830,-14.2573839252,-0.6050444530309997,105.04463499392902
1699310157844,-14.4301458252,-0.6810982730309998,105.65963359392904
1699310157856,-14.6076964252,-0.7628080330309998,106.27573219392904
1699310157869,-14.7899064252,-0.8478439430309997,106.89277719392904
1699310157884,-14.9768598252,-0.9325875530309996,107.51073629392904
1699310157896,-15.1689504252,-1.0153416630309997,108.12982679392904
1699310157911,-15.3666001252,-1.0947464030309997,108.75051559392902
1699310157924,-15.5702409252,-1.1697990330309995,109.37322619392904
1699310157939,-15.7801117252,-1.2397333730309998,109.99831819392902
1699310157953,-15.9958052252,-1.303789163031,110.62651289392902
1699310157967,-16.2176959252,-1.361546503031,111.25836209392902
1699310157981,-16.4459095252,-1.4129890630309998,111.89447259392902
1699310157994,-16.6805288252,-1.4591572530309995,112.53443059392902
1699310158008,-16.9217248252,-1.5007050330309997,113.17849769392902
1699310158021,-17.1691299252,-1.5375006830309996,113.826950093929
1699310158036,-17.4225939252,-1.5704424730309996,114.479133793929
1699310158050,-17.6811222252,-1.6008073030309995,115.134300493929
1699310158067,-17.944417125199998,-1.6300232630309994,115.791452393929
1699310158080,-18.2123824252,-1.654777453030999,116.450460693929
1699310158092,-18.4852503252,-1.6600909180309993,117.115570293929
1699310158105,-18.7632817252,-1.6273048280309992,117.788868993929
1699310158119,-19.0444812252,-1.575210648030999,118.464939993929
1699310158134,-19.3278360252,-1.5180951880309992,119.142405293929
1699310158149,-19.6124352252,-1.4491097980309993,119.82157489392898
1699310158162,-19.8995613252,-1.3598610880309994,120.505606393929
1699310158175,-20.1892201252,-1.2494001880309993,121.19655269392898
1699310158189,-20.4789969252,-1.1323168880309993,121.89108899392896
1699310158203,-20.7669775252,-1.0297723880309992,122.58463749392898
1699310158217,-21.0529210252,-0.9525214280309992,123.27497649392896
1699310158230,-21.3365041252,-0.9056238780309992,123.95949789392895
1699310158244,-21.6171631252,-0.8815256080309993,124.63770769392896
1699310158258,-21.8935385252,-0.8696337880309993,125.30987399392896
1699310158275,-22.1645482252,-0.8589705780309993,125.97560879392896
1699310158286,-22.4314360252,-0.8451833280309993,126.63376729392895
1699310158299,-22.6965600252,-0.8280795380309993,127.28272169392896
1699310158314,-22.9626593252,-0.8052966680309993,127.92088509392896
1699310158327,-23.2328740252,-0.7717756180309994,128.54903149392896
1699310158342,-23.5096081252,-0.7231260180309994,129.16728609392896
1699310158356,-23.7942497252,-0.6620560180309994,129.77544209392897
1699310158372,-24.087406225199995,-0.5962030680309994,130.37292749392898
1699310158386,-24.389827925199995,-0.5326580380309994,130.959003693929
1699310158399,-24.7010056252,-0.4762713080309994,131.534621793929
1699310158412,-25.0210613252,-0.4299963980309994,132.100197893929
1699310158424,-25.3495411252,-0.3955549180309994,132.656932393929
1699310158439,-25.6873470252,-0.3752785580309994,133.20453769392898
1699310158453,-26.0339287252,-0.3698999510309994,133.744356393929
1699310158470,-26.3893901252,-0.3803877610309994,134.276679693929
1699310158483,-26.7524427252,-0.4059240210309994,134.80256329392898
1699310158497,-27.1218037252,-0.4425250810309994,135.32331289392897
1699310158510,-27.4967002252,-0.4881440110309994,135.83978689392896
1699310158522,-27.8759199252,-0.5411537610309994,136.35258809392897
1699310158536,-28.2582356252,-0.6005491810309994,136.86243509392898
1699310158550,-28.6428685252,-0.6647455110309994,137.369184093929
1699310158564,-29.0299979252,-0.7312372910309994,137.872912293929
1699310158579,-29.4201732252,-0.7970160110309994,138.37394759392902
1699310158593,-29.8133942252,-0.8609124410309994,138.87269859392902
1699310158606,-30.209366125199995,-0.9216843210309994,139.36943539392902
1699310158622,-30.607882625199995,-0.9786973510309994,139.86445919392904
1699310158634,-31.0094470252,-1.0317102910309994,140.35761149392903
1699310158646,-31.4145416252,-1.0807275610309994,140.84855119392904
1699310158661,-31.8232008252,-1.1263943410309991,141.33739069392905
1699310158676,-32.2355754252,-1.170275281030999,141.82368559392904
1699310158688,-32.6516574252,-1.2124795010309992,142.30806939392903
1699310158703,-33.0715953252,-1.2528940010309992,142.79110889392902
1699310158717,-33.4952859252,-1.2921469310309992,143.27324509392903
1699310158730,-33.9220927252,-1.3296697210309991,143.75619319392902
1699310158744,-34.3520944252,-1.364469391030999,144.241260093929
1699310158758,-34.7852702252,-1.396273531030999,144.72936809392905
1699310158773,-35.2216017252,-1.4264100910309991,145.22166779392902
1699310158785,-35.660910825200006,-1.456352131030999,145.71810639392902
1699310158801,-36.1022297252,-1.487803081030999,146.219285693929
1699310158815,-36.544735725200006,-1.522354441030999,146.72555309392902
1699310158827,-36.988312225200005,-1.558908741030999,147.23647549392902
1699310158842,-37.43638052520001,-1.586598831030999,147.752842693929
1699310158856,-37.89679542520001,-1.574094351030999,148.278143593929
1699310158869,-38.37044322520001,-1.505503051030999,148.812480293929
1699310158883,-38.850480225200016,-1.416344871030999,149.35141139392903
1699310158898,-39.334874525200014,-1.322669001030999,149.89483049392902
1699310158912,-39.823720425200015,-1.223428971030999,150.44285119392902
1699310158927,-40.320353725200015,-1.1155804710309989,150.993898593929
1699310158940,-40.824738225200015,-1.0074383710309989,151.544208893929
1699310158951,-41.334894625200015,-0.9096817210309988,152.08932869392902
1699310158965,-41.852214325200016,-0.8295143210309989,152.625213093929
1699310158980,-42.380438625200014,-0.7635669110309988,153.14778439392902
1699310158995,-42.92290932520002,-0.7023847110309989,153.655609893929
1699310159009,-43.47974212520002,-0.6419309510309988,154.148670193929
1699310159023,-44.04955082520002,-0.5873088710309988,154.625738393929
1699310159037,-44.62971562520002,-0.5423007110309989,155.086539293929
1699310159051,-45.21804372520002,-0.5077643410309989,155.530886893929
1699310159062,-45.812625825200016,-0.4830252010309989,155.959151393929
1699310159077,-46.411728825200015,-0.4690278810309989,156.372226393929
1699310159091,-47.014760825200014,-0.4670556560309989,156.770722793929
1699310159106,-47.622312325200014,-0.4758407960309989,157.156386193929
1699310159120,-48.235845025200014,-0.4932461360309989,157.529296793929
1699310159134,-48.855442325200016,-0.5170326360309989,157.890692293929
1699310159146,-49.48037272520001,-0.5468829860309989,158.241050393929
1699310159161,-50.109609025200015,-0.585793016030999,158.57938559392898
1699310159176,-50.742640325200014,-0.636103736030999,158.90452229392898
1699310159188,-51.378891925200016,-0.697108766030999,159.21666279392898
1699310159202,-52.01881412520002,-0.767114666030999,159.51599529392897
1699310159217,-52.66332082520002,-0.8438234960309989,159.80277459392897
1699310159231,-53.31380862520002,-0.9246376560309988,160.07759989392898
1699310159245,-53.970843425200016,-1.0069813860309988,160.34093469392897
1699310159257,-54.63468492520001,-1.090408766030999,160.59297429392896
1699310159271,-55.305101425200014,-1.1745456960309988,160.83430019392895
1699310159285,-55.98296442520002,-1.259345566030999,161.06568129392895
1699310159300,-56.66894022520002,-1.3440035360309988,161.28932529392895
1699310159314,-57.36411802520002,-1.4281464560309989,161.50659359392895
1699310159328,-58.06919922520002,-1.5122995260309986,161.71900029392896
1699310159342,-58.78379462520002,-1.5969325460309989,161.92740499392897
1699310159356,-59.50810732520002,-1.6821878560309986,162.13224119392893
1699310159369,-60.243471225200025,-1.7664062760309986,162.33359219392892
1699310159383,-60.98931102520002,-1.8479855460309984,162.5322057939289
1699310159399,-61.746729025200025,-1.9248985260309983,162.72752719392892
1699310159412,-62.51507822520003,-1.9957428960309984,162.91923039392893
1699310159426,-63.29398562520003,-2.0594658060309987,163.10633059392893
1699310159439,-64.08277972520003,-2.1168223160309987,163.28788509392894
1699310159453,-64.88097692520003,-2.167132366030999,163.46292369392893
1699310159467,-65.68835822520003,-2.209349276030999,163.63045289392892
1699310159481,-66.50429792520004,-2.242005086030999,163.79059589392892
1699310159493,-67.33285282520004,-2.253415906030999,163.94369369392894
1699310159507,-68.17753592520003,-2.229508116030999,164.09148479392894
1699310159522,-69.03676022520003,-2.172308996030999,164.23413169392893
1699310159536,-69.90318902520002,-2.099513796031,164.3722039939289
1699310159550,-70.77136042520002,-2.0234613060309994,164.50698849392893
1699310159563,-71.64029852520001,-1.946639466031,164.64042009392892
1699310159578,-72.5118464252,-1.865240576031,164.77454029392894
1699310159591,-73.38309232520001,-1.7875823860309994,164.91157639392893
1699310159606,-74.24995692520001,-1.7258618960309997,165.05213389392893
1699310159621,-75.1122075252,-1.6816469460309995,165.1968638939289
1699310159634,-75.9692188252,-1.6483544560309995,165.34493719392893
1699310159647,-76.8207914252,-1.6202915960309996,165.49778939392894
1699310159661,-77.6654339252,-1.5941528860309997,165.65696689392894
1699310159675,-78.5011065252,-1.5674953860309997,165.82232609392895
1699310159687,-79.3278754252,-1.5387357360309997,165.99178689392895
1699310159703,-80.1452729252,-1.5036427160309995,166.16218759392893
1699310159716,-80.9537619252,-1.4600499860309997,166.33085689392894
1699310159731,-81.7532072252,-1.4074100460309995,166.49567049392894
1699310159744,-82.5422026252,-1.3489760360309997,166.65555049392893
1699310159759,-83.31863642520001,-1.2896009560309998,166.80941209392893
1699310159773,-84.08309672520001,-1.2341268760309998,166.95608189392894
1699310159788,-84.8370023252,-1.184314176031,167.09346959392894
1699310159800,-85.5821941252,-1.141836866031,167.22129089392894
1699310159813,-86.3200476252,-1.109201396031,167.33982099392892
1699310159828,-87.0520242252,-1.089085286031,167.4499890939289
1699310159842,-87.7787512252,-1.083096810031,167.55234279392894
1699310159856,-88.50151002519999,-1.090268248031,167.64858641392894
1699310159871,-89.2216990252,-1.109839958031,167.73979473392893
1699310159883,-89.94064302519999,-1.139993338031,167.82736297392893
1699310159897,-90.6596563252,-1.178662488031,167.91254944392892
1699310159911,-91.3795080252,-1.223386218031,167.99669472392893
1699310159925,-92.1007120252,-1.270438588031,168.0808587239289
1699310159938,-92.8232488252,-1.317019968031,168.1668611439289
1699310159952,-93.5470533252,-1.361605958031,168.2559497339289
1699310159967,-94.2722802252,-1.403930948031,168.3484400339289
1699310159981,-94.9995546252,-1.443862458031,168.4447873439289
1699310159995,-95.7298180252,-1.481159868031,168.54515814392892
1699310160008,-96.46332112519998,-1.515773788031,168.64904994392893
1699310160021,-97.2009754252,-1.549049088031,168.75685434392892
1699310160035,-97.9424687252,-1.582463758031,168.8683105439289
1699310160050,-98.68813432519998,-1.617343108031,168.9834391439289
1699310160066,-99.43823952519998,-1.653677528031,169.1024400439289
1699310160078,-100.19297262519996,-1.691301788031,169.22524674392892
1699310160092,-100.95209682519996,-1.729141988031,169.35110694392893
1699310160108,-101.71665312519995,-1.766423988031,169.47989784392894
1699310160120,-102.48601502519998,-1.803106318031,169.61123064392893
1699310160133,-103.25957732519996,-1.839078178031,169.74495454392894
1699310160147,-104.03723252519995,-1.873308398031,169.8808358439289
1699310160162,-104.82090412519996,-1.898329098031,170.01798304392892
1699310160176,-105.61917972519996,-1.888369066031,170.15554754392892
1699310160188,-106.42929422519995,-1.842672346031,170.29333304392893
1699310160203,-107.24771352519996,-1.7755058860310002,170.4299009439289
1699310160216,-108.06950632519997,-1.6940143360310005,170.56604394392892
1699310160230,-108.89393732519996,-1.6036309660310002,170.69986554392892
1699310160244,-109.72137802519995,-1.5041685360310002,170.82839744392894
1699310160259,-110.54887592519997,-1.4034540360310002,170.94922054392893
1699310160272,-111.37074092519995,-1.3161789660310002,171.06045284392894
1699310160286,-112.18331892519996,-1.253849266031,171.16026727392895
1699310160301,-112.98806962519996,-1.2144024660310002,171.24640578392896
1699310160315,-113.78733092519995,-1.1854746360310002,171.31489336392897
1699310160328,-114.58371042519995,-1.1564036160310005,171.36438836392898
1699310160342,-115.37708392519995,-1.1241214760310003,171.39414611392897
1699310160355,-116.16545532519996,-1.0889034860310003,171.40650451392898
1699310160371,-116.94702162519997,-1.0500244560310004,171.40275426392898
1699310160384,-117.72041592519996,-1.0072087860310004,171.385939603929
1699310160397,-118.48499312519998,-0.9609839160310004,171.35944142392898
1699310160411,-119.23939872519998,-0.9117404960310004,171.324707203929
1699310160424,-119.98630282519996,-0.8589640260310004,171.28401143392898
1699310160438,-120.72788892519998,-0.8027716860310005,171.23786022392898
1699310160452,-121.46678462519998,-0.7445583860310004,171.18737887392896
1699310160467,-122.20457832519998,-0.6890076960310004,171.13374665392897
1699310160481,-122.94204282519998,-0.6423814360310004,171.07743511392897
1699310160495,-123.68014122519996,-0.6105180960310004,171.01927112392897
1699310160508,-124.42029952519998,-0.5963340260310004,170.95973501392896
1699310160521,-125.16368392519998,-0.5994634010310004,170.89903314392896
1699310160535,-125.91197222519996,-0.6180784010310004,170.83641916392895
1699310160549,-126.66688372519998,-0.6494584510310004,170.77114599392894
1699310160564,-127.42893132519998,-0.6915827910310004,170.70314947392893
1699310160578,-128.19919212519997,-0.7434498110310004,170.63233175392892
1699310160592,-128.97677022519997,-0.8032578410310004,170.5586881639289
1699310160606,-129.76128752519998,-0.8684863110310004,170.48200321392895
1699310160620,-130.55200412519997,-0.9385648410310004,170.40221862392897
1699310160632,-131.34878672519997,-1.0130065310310004,170.31916165392894
1699310160647,-132.15161752519998,-1.0915131310310004,170.23289294392893
1699310160662,-132.9597743252,-1.1732422010310004,170.14316731392893
1699310160675,-133.7724116252,-1.2569670010310003,170.04973980392893
1699310160688,-134.5889561252,-1.3416133710310003,169.95222902392894
1699310160703,-135.4092957252,-1.4251241910310004,169.85081032392893
1699310160717,-136.2340165252,-1.5055564310310003,169.74586572392892
1699310160731,-137.06316812519998,-1.5803862410310003,169.63754252392891
1699310160742,-137.89669962519997,-1.6493941010310005,169.5260314239289
1699310160758,-138.73471292519997,-1.7140055310310005,169.4108197239289
1699310160772,-139.57656462519998,-1.7769956410310004,169.2924588239289
1699310160786,-140.42041282519995,-1.8405462210310004,169.1714717239289
1699310160800,-141.26430592519998,-1.9058761910310005,169.0483024239289
1699310160815,-142.10807042519997,-1.9674126510310004,168.9239066239289
1699310160828,-142.95950772519996,-1.9968263610310004,168.7980148239289
1699310160842,-143.81876712519997,-1.9781742910310005,168.6718212239289
1699310160855,-144.68398132519997,-1.9299101910310008,168.5456469239289
1699310160870,-145.55111812519996,-1.8657696810310005,168.4211902239289
1699310160884,-146.42022892519995,-1.7927365610310004,168.2987322239289
1699310160897,-147.29239152519995,-1.7145543810310004,168.1789960239289
1699310160911,-148.16590472519994,-1.6404843210310005,168.0644733239289
1699310160925,-149.03932672519994,-1.5797081510310005,167.9581551239289
1699310160939,-149.91212712519993,-1.5301118810310004,167.8610385839289
1699310160952,-150.78267682519993,-1.4873343010310005,167.77468468392888
1699310160967,-151.64909972519993,-1.4479113510310002,167.69996154392888
1699310160981,-152.50801552519994,-1.4132334210310002,167.63827590392887
1699310160994,-153.35690412519995,-1.3816379210310004,167.58910067392887
1699310161008,-154.19695532519995,-1.3470190010310004,167.55155153392886
1699310161020,-155.02835612519996,-1.2986505810310005,167.52396850392887
1699310161035,-155.85315952519997,-1.2327238610310003,167.50326118392886
1699310161048,-156.67152352519997,-1.1547827010310003,167.48670754392884
1699310161063,-157.48062072519997,-1.0759772110310004,167.47257027392885
1699310161078,-158.28041522519996,-1.0068538810310004,167.45894691392886
1699310161093,-159.07283652519996,-0.9528189210310004,167.44389489392884
1699310161106,-159.86143722519995,-0.9130337910310004,167.42670491392883
1699310161119,-160.64835722519996,-0.8886702810310004,167.40678283392884
1699310161133,-161.43468712519996,-0.8812134990310004,167.38512480392885
1699310161146,-162.22093762519995,-0.8944577290310004,167.36210811392883
1699310161159,-163.00780542519996,-0.9279765190310004,167.33899568392886
1699310161174,-163.79582312519997,-0.9813404190310004,167.31594981392885
1699310161189,-164.58539332519996,-1.0505941190310004,167.29356633392885
1699310161202,-165.37687612519997,-1.1307852590310004,167.27244589392885
1699310161215,-166.17057352519998,-1.2170565390310004,167.25251410392886
1699310161231,-166.96719962519998,-1.3062142190310004,167.23347481392886
1699310161245,-167.76731492519997,-1.3946775790310004,167.21509764392886
1699310161257,-168.57128292519997,-1.4798261890310005,167.19803867392886
1699310161272,-169.37920622519997,-1.5599305290310004,167.18255893392887
1699310161285,-170.19074552519996,-1.6346999990310005,167.16819606392886
1699310161302,-171.00510862519997,-1.7052775190310006,167.15446145392886
1699310161315,-171.82199012519996,-1.7722260490310004,167.14125948392885
1699310161328,-172.64176712519995,-1.8347855190310003,167.12853378392884
1699310161341,-173.46519532519994,-1.8926958990310008,167.11706540392885
1699310161356,-174.29215432519993,-1.9465079690310003,167.10729708192883
1699310161369,-175.1224259251999,-1.9975626890310003,167.09957692392882
1699310161382,-175.95589412519993,-2.0463300190310005,167.09388093992882
1699310161396,-176.79304092519993,-2.0921699490310006,167.09038991092882
1699310161411,-177.63396022519993,-2.1351406590310007,167.0894122010288
1699310161427,-178.47866082519994,-2.1751256190310007,167.0909831410288
1699310161439,-179.32838872519994,-2.2087086290310007,167.0955482910288
1699310161453,-180.1882210252,-2.2199709790310007,167.10289298402878
1699310161467,-181.0655974252,-2.181721229031001,167.1136367240288
1699310161481,-181.9532779252,-2.1124461390310008,167.1276960440288
1699310161493,-182.8456984251999,-2.0326627290310006,167.1424480140288
1699310161510,-183.73802282519992,-1.9488198590310009,167.1558932440288
1699310161523,-184.62941382519992,-1.8600718390310007,167.1656394970288
1699310161536,-185.51994642519992,-1.7692665890310006,167.1713868900288
1699310161550,-186.40717482519992,-1.6829462690310006,167.1724396570288
1699310161564,-187.2864951251999,-1.6140585890310006,167.1670234570288
1699310161577,-188.1534382251999,-1.5728206990310007,167.1523858070288
1699310161592,-189.0075547251999,-1.5595483090310007,167.1265174170288
1699310161606,-189.8500453251999,-1.5625282190310008,167.08883191702878
1699310161618,-190.6816842251999,-1.5690691450310008,167.0408543970288
1699310161634,-191.5011584251999,-1.5756112210310007,166.9835388870288
1699310161647,-192.30517682519988,-1.5819658330310007,166.9160583370288
1699310161662,-193.0938824251999,-1.5849267070310007,166.8392331670288
1699310161675,-193.86665982519983,-1.5765619150310006,166.75264089702878
1699310161688,-194.62576972519983,-1.5502498550310009,166.6586732170288
1699310161703,-195.37398432519987,-1.5026053850310006,166.5592486870288
1699310161716,-196.11300982519987,-1.4354207150310003,166.4553144870288
1699310161731,-196.84357022519987,-1.3579855350310006,166.3471133870288
1699310161744,-197.56621122519988,-1.2796161550310006,166.2348000870288
1699310161759,-198.28117822519988,-1.2088489450310005,166.1189664870288
1699310161773,-198.98974172519988,-1.1512223650310005,165.9998738870288
1699310161787,-199.69341302519987,-1.1081491650310005,165.8784835870288
1699310161800,-200.39323652519988,-1.0816492850310004,165.7548059870288
1699310161814,-201.0911507251999,-1.0698336250310003,165.6292131870288
1699310161826,-201.7884716251999,-1.0703650580310005,165.5012362870288
1699310161842,-202.4861777251999,-1.0821027180310006,165.3705065870288
1699310161855,-203.1848887251999,-1.1052419380310006,165.2368276870288
1699310161869,-203.8854040251999,-1.1382693780310005,165.1002006870288
1699310161883,-204.58843352519992,-1.1790552180310006,164.9605808870288
1699310161899,-205.2945183252,-1.2260154780310006,164.8176971870288
1699310161911,-206.00345062519992,-1.2782444180310006,164.67153298702883
1699310161924,-206.7146707251999,-1.3359895180310006,164.52171858702883
1699310161938,-207.42876342519992,-1.3976888580310007,164.36785248702884
1699310161953,-208.14596562519992,-1.4609623580310007,164.21009698702883
1699310161967,-208.8663225252,-1.5247783280310008,164.04736898702885
1699310161981,-209.5902917252,-1.5882054780310009,163.87967828702884
1699310161994,-210.3176829252,-1.650992858031001,163.70702788702883
1699310162007,-211.0494252252,-1.7122262880310009,163.52935588702883
1699310162021,-211.78651642519995,-1.771162368031001,163.3470508870288
1699310162036,-212.52945892519995,-1.8277239380310009,163.16062938702882
1699310162051,-213.2786185252,-1.8824744380310008,162.96998018702882
1699310162064,-214.03354152519995,-1.9363352880310007,162.77533128702882
1699310162077,-214.79383482519995,-1.989913978031001,162.57696018702882
1699310162092,-215.5588522252,-2.0441348280310008,162.37503678702882
1699310162107,-216.3263493252,-2.100554598031001,162.16981448702882
1699310162119,-217.0937701252,-2.158712798031001,161.96267888702883
1699310162133,-217.8645455252,-2.2028472180310006,161.75515008702882
1699310162146,-218.6436338252,-2.1997759330310007,161.54815288702883
1699310162162,-219.4253434252,-2.162046153031001,161.34340088702882
1699310162175,-220.2089800252,-2.0983102530310007,161.14147218702882
1699310162189,-220.9939223252,-2.0066666230310006,160.94247818702885
1699310162203,-221.7839262252,-1.8881298230310009,160.7460700870288
1699310162216,-222.57853842519995,-1.7529614230310009,160.5547743870288
1699310162229,-223.37395432519995,-1.620303723031001,160.3714697870288
1699310162241,-224.1678451252,-1.502498223031001,160.1973598870288
1699310162256,-224.95841862519995,-1.4061675830310008,160.03413968702878
1699310162270,-225.7454252252,-1.3268780530310007,159.8818219870288
1699310162285,-226.5269339252,-1.2612110630310007,159.7425929870288
1699310162299,-227.30140892519995,-1.2065116830310008,159.61777318702875
1699310162313,-228.0681548252,-1.1602536830310008,159.50604818702877
1699310162326,-228.8277205252,-1.117360993031001,159.40543628702878
1699310162340,-229.5818677252,-1.070484003031001,159.31322785702878
1699310162355,-230.3314312252,-1.014236853031001,159.22737002702877
1699310162370,-231.0767586252,-0.9512143830310013,159.14565495702877
1699310162383,-231.8172878252,-0.8868323630310011,159.06648460702877
1699310162397,-232.5530621252,-0.8267343230310011,158.98884311702878
1699310162411,-233.2846194252,-0.7752560330310011,158.9121186470288
1699310162424,-234.0131704252,-0.733838103031001,158.83559231702878
1699310162439,-234.7393338252,-0.705110713031001,158.75878193702877
1699310162453,-235.4635922252,-0.691536523031001,158.68100624702876
1699310162467,-236.18630392519992,-0.692750080031001,158.60121504702877
1699310162480,-236.90764622519995,-0.707663410031001,158.51855738702878
1699310162495,-237.6272319252,-0.735349540031001,158.43325392702877
1699310162508,-238.3449698252,-0.774270460031001,158.34573471702876
1699310162522,-239.0606383252,-0.823217320031001,158.25670718702875
1699310162535,-239.77463422519992,-0.880178450031001,158.16761213702875
1699310162549,-240.48718362519992,-0.942629240031001,158.07896590702876
1699310162564,-241.19835572519992,-1.009327350031001,157.99114400702877
1699310162578,-241.90810102519995,-1.079782490031001,157.90445670702877
1699310162592,-242.61630112519995,-1.153131910031001,157.81964893702877
1699310162606,-243.32297452519992,-1.228609380031001,157.73620622702876
1699310162619,-244.02826782519992,-1.306084950031001,157.65477154702876
1699310162633,-244.7322227252,-1.385253580031001,157.57618922702875
1699310162647,-245.43491372519992,-1.4655197000310012,157.50169279702874
1699310162661,-246.13625882519992,-1.5463520200310013,157.43242891702874
1699310162674,-246.83698672519992,-1.6268236900310011,157.36798459702874
1699310162688,-247.53781342519991,-1.706058070031001,157.30836112702875
1699310162703,-248.2394857252,-1.782450220031001,157.25367713702877
1699310162716,-248.94277352519995,-1.8549727100310007,157.20453418702874
1699310162729,-249.6475634252,-1.9229750800310013,157.16158184702874
1699310162743,-250.35330102519995,-1.986747680031001,157.12479430702874
1699310162758,-251.0591603251999,-2.0462713700310013,157.09466933702873
1699310162773,-251.7637303251999,-2.101766000031001,157.07048368702874
1699310162785,-252.4655401251999,-2.1529995800310013,157.05128362702874
1699310162799,-253.1688299251999,-2.185685540031001,157.03484678702873
1699310162814,-253.88484132519991,-2.162733880031001,157.01958336702873
1699310162828,-254.61116822519992,-2.089579510031001,157.00518355702874
1699310162841,-255.3459349251999,-1.984734710031001,156.99017092702874
1699310162855,-256.0832583251999,-1.8613827100310008,156.97480648702873
1699310162870,-256.8224657251999,-1.7305866100310012,156.95825064702873
1699310162882,-257.5607534251999,-1.6010933100310012,156.93971348702874
1699310162896,-258.2920650251999,-1.4869304100310012,156.91799800702873
1699310162911,-259.0096823251999,-1.4024614200310013,156.89093330702872
1699310162924,-259.7100016251999,-1.3500348900310013,156.85621523702872
1699310162938,-260.3933513251999,-1.3207972500310012,156.8119163970287
1699310162950,-261.0634504251999,-1.298768150031001,156.75836544702872
1699310162965,-261.7235641251999,-1.2681761900310011,156.69683158702873
1699310162979,-262.3755885252,-1.2254600200310013,156.62941859702872
1699310162994,-263.0166372252,-1.1765800900310013,156.5578641070287
1699310163008,-263.64520922519995,-1.1258523500310014,156.4836340670287
1699310163022,-264.2610791252,-1.0734265100310014,156.4082803270287
1699310163036,-264.8659835252,-1.0183794900310017,156.3332703470287
1699310163050,-265.4611851252,-0.9608688900310016,156.2582925670287
1699310163064,-266.0476899252,-0.9013574100310016,156.18219150702868
1699310163077,-266.62701162519994,-0.8399637100310016,156.10363528702868
1699310163090,-267.20030172519995,-0.7793732500310016,156.02289393702867
1699310163105,-267.7679174251999,-0.7237092700310015,155.94142363702866
1699310163120,-268.3304280251999,-0.6768912100310015,155.86066402702866
1699310163133,-268.8881034251999,-0.6408963700310015,155.78131338702866
1699310163147,-269.4417745251999,-0.6148305300310015,155.70357869702866
1699310163160,-269.99192782519987,-0.5981519000310015,155.62760856702866
1699310163174,-270.53942892519984,-0.5899120100310015,155.55392802702866
1699310163189,-271.08435382519986,-0.5896098955310015,155.48212011702867
1699310163203,-271.62689392519985,-0.5970758395310015,155.41215254702868
1699310163217,-272.16696502519983,-0.6107281095310015,155.34274559702868
1699310163231,-272.7041948251998,-0.6306410795310016,155.2730631070287
1699310163244,-273.2383734251998,-0.6565086295310015,155.2028074370287
1699310163257,-273.7698504251998,-0.6872654895310015,155.13178423702868
1699310163271,-274.29806962519984,-0.7228466595310016,155.05934509702868
1699310163285,-274.82324842519984,-0.7623780495310015,154.98492982702868
1699310163300,-275.3451558251998,-0.8060009095310016,154.90804615702868
1699310163314,-275.8631721251998,-0.8540734495310016,154.8287006570287
1699310163327,-276.3779332251998,-0.9053353995310016,154.7472662270287
1699310163340,-276.8892024251998,-0.9595445695310016,154.66388210702868
1699310163353,-277.3968308251998,-1.0158597695310017,154.57835718702867
1699310163368,-277.9014403251998,-1.0732645695310017,154.49080900702867
1699310163383,-278.40306372519984,-1.1315985095310015,154.40104812702867
1699310163397,-278.90198572519984,-1.1909315595310015,154.30877449702868
1699310163410,-279.3979033251998,-1.2519596595310016,154.2135863770287
1699310163424,-279.8905292251998,-1.3148537795310016,154.1154878670287
1699310163440,-280.3790984251998,-1.3796541695310016,154.0146232670287
1699310163453,-280.8628394251998,-1.4462258795310017,153.91131886702868
1699310163466,-281.3418033251998,-1.5131564295310016,153.80612616702868
1699310163479,-281.81720302519983,-1.5760211695310016,153.69992246702867
1699310163493,-282.2922048251998,-1.6206675995310016,153.59259636702868
1699310163508,-282.77092312519983,-1.6315994995310017,153.48490866702866
1699310163520,-283.25136962519986,-1.6185559095310016,153.37744786702865
1699310163535,-283.73207462519986,-1.5916289495310016,153.26989286702866
1699310163549,-284.21390642519987,-1.5500831995310016,153.16204946702865
1699310163563,-284.69791982519985,-1.4986628795310015,153.05345926702864
1699310163577,-285.18532972519984,-1.4400001995310014,152.94499196702864
1699310163591,-285.6751769251998,-1.3780176695310014,152.83724916702863
1699310163605,-286.1660379251998,-1.3169287595310013,152.73043776702863
1699310163620,-286.6549968251998,-1.2593208095310011,152.62443546702863
1699310163634,-287.13979312519984,-1.2055607395310013,152.51971996702864
1699310163648,-287.61837122519984,-1.154353879531001,152.41737236702863
1699310163662,-288.0897837251998,-1.1052170095310014,152.31824773702863
1699310163675,-288.5535270251998,-1.0579170495310015,152.22314797702862
1699310163688,-289.0101351251998,-1.0114329795310015,152.1332862270286
1699310163703,-289.4583283251998,-0.9656448395310016,152.0498129070286
1699310163716,-289.8977729251998,-0.9233815895310016,151.9720993770286
1699310163732,-290.3270555251998,-0.8868188195310016,151.9000943170286
1699310163743,-290.7458599251998,-0.8572721395310016,151.83411304702858
1699310163759,-291.1553378251998,-0.8345187295310016,151.7738743770286
1699310163772,-291.55584012519984,-0.8165100795310016,151.71945467702858
1699310163784,-291.9493207251998,-0.8002470495310017,151.67037158702857
1699310163799,-292.3363650251998,-0.7821513795310017,151.62687063702856
1699310163814,-292.71731972519984,-0.7598850795310017,151.58859750702857
1699310163828,-293.0911362251998,-0.7362441395310018,151.55517939702855
1699310163841,-293.4554073251998,-0.7139487495310017,151.52615748702854
1699310163854,-293.8088234251998,-0.6924779395310018,151.50051380702854
1699310163869,-294.1513554251998,-0.6695340495310018,151.47783670702853
1699310163883,-294.48243482519985,-0.6441978495310018,151.45776648702852
1699310163896,-294.80215292519983,-0.6170806495310018,151.43940608702852
1699310163911,-295.1097026251998,-0.5895449395310018,151.4218779270285
1699310163925,-295.40496932519983,-0.5627720895310019,151.4045540770285
1699310163938,-295.68961102519984,-0.5369595295310019,151.3872808370285
1699310163951,-295.9636493251998,-0.5128335195310019,151.3699013270285
1699310163967,-296.22685782519983,-0.4916028495310018,151.35248592702848
1699310163981,-296.47983642519984,-0.4745637195310018,151.3349778570285
1699310163994,-296.72324042519983,-0.4613675795310018,151.3173541270285
1699310164008,-296.95822632519986,-0.4503564995310018,151.3001064770285
1699310164021,-297.18558922519986,-0.4397633195310018,151.2838984270285
1699310164035,-297.4059069251999,-0.4292556595310018,151.2691971670285
1699310164049,-297.6188540251999,-0.4203026625310018,151.25705115702849
1699310164065,-297.82500352519986,-0.4125157385310019,151.24771927102847
1699310164078,-298.0242796251999,-0.4055874115310018,151.2418511710285
1699310164092,-298.21690922519986,-0.4004972365310019,151.23968197202848
1699310164106,-298.40233822519986,-0.3985918815310019,151.24183837902848
1699310164119,-298.58051312519984,-0.3999334045310019,151.24850765302847
1699310164133,-298.75130992519985,-0.4043191175310019,151.25947190302847
1699310164147,-298.91491492519987,-0.4105129905310019,151.27499590302847
1699310164163,-299.0715611251999,-0.4180687755310019,151.29459437302847
1699310164174,-299.22051852519985,-0.4280138685310019,151.31779056302847
1699310164188,-299.36116832519986,-0.4413430685310019,151.34463025302847
1699310164202,-299.49304182519984,-0.4585472085310019,151.37509151302848
1699310164217,-299.61554202519983,-0.4787779785310019,151.40868946302848
1699310164231,-299.72933362519984,-0.5000569285310019,151.44530712302847
1699310164245,-299.8342475251998,-0.5217909885310019,151.48473054302846
1699310164257,-299.93013395519984,-0.544186428531002,151.52706528302846
1699310164271,-300.01643905519984,-0.5671518385310019,151.57280027302846
1699310164286,-300.0933283351998,-0.590363378531002,151.62147763302846
1699310164300,-300.1616404051998,-0.6108588485310019,151.67352432302846
1699310164313,-300.22379146519984,-0.6237125685310019,151.72923826302846
1699310164328,-300.27958267519983,-0.6299677905310018,151.78875968302847
1699310164341,-300.32920556519986,-0.6313128815310018,151.85239448302846
1699310164354,-300.3735106451999,-0.6288779025310018,151.91979374302846
1699310164369,-300.41355766519985,-0.6207368875310019,151.99119742302847
1699310164384,-300.45110793519984,-0.6059942575310019,152.06657879302847
1699310164399,-300.4874271251998,-0.5862682775310019,152.14580444302848
1699310164411,-300.5221296551998,-0.5661481475310018,152.2287283630285
1699310164425,-300.5553213251998,-0.5501392775310019,152.3156313530285
1699310164440,-300.5865806351998,-0.5410870565310019,152.4063266930285
1699310164451,-300.61635676519984,-0.5387631005310018,152.5001066430285
1699310164467,-300.64500765519983,-0.5412790775310018,152.5959357430285
1699310164480,-300.67283123519985,-0.5469982775310018,152.6931849830285
1699310164495,-300.69941449519985,-0.5542406135310018,152.79094745302848
1699310164509,-300.72389179519985,-0.5617783545310019,152.88793007302849
1699310164521,-300.74594941519985,-0.5689911245310019,152.9834146530285
1699310164535,-300.76538951519984,-0.5749057335310018,153.0766574130285
1699310164549,-300.7819741051998,-0.5794545465310018,153.1675335330285
1699310164564,-300.79612121519983,-0.5821045705310018,153.25627792302848
1699310164578,-300.8084288051998,-0.5829167706310019,153.34328912302848
1699310164592,-300.8190397451998,-0.5822733781310019,153.4287921130285
1699310164606,-300.8280922131998,-0.5810259861310019,153.5130962930285
1699310164621,-300.8359354491998,-0.5796500451310018,153.5965128930285
1699310164635,-300.84231641119976,-0.5794841434310019,153.6793931630285
1699310164648,-300.8472684711997,-0.5807040164310019,153.7613996730285
1699310164660,-300.85092031819977,-0.5834749064310019,153.84252474302852
1699310164673,-300.8531965431998,-0.5873081214310019,153.92247468302853
1699310164689,-300.85404503209975,-0.5922515914310018,154.00160905302852
1699310164703,-300.8534272801997,-0.5975698734310018,154.0801489230285
1699310164716,-300.8511283101997,-0.6028094394310017,154.1583216330285
1699310164729,-300.84710492519974,-0.6079827364310018,154.2364702430285
1699310164744,-300.84113555319976,-0.6124045204310018,154.3147786530285
1699310164758,-300.8333957321998,-0.6161981854310018,154.39372327302848
1699310164773,-300.8233950921998,-0.6195602704310018,154.47290694302848
1699310164785,-300.8114973721998,-0.6226452174310018,154.55184545302848
1699310164799,-300.7978782821998,-0.6256712534310017,154.63043991302848
1699310164814,-300.7824684021998,-0.6286627804310018,154.70844227302848
1699310164828,-300.7656536321998,-0.6314738574310018,154.78597665302848
1699310164842,-300.7473928521998,-0.6340518764310018,154.8629727230285
1699310164857,-300.7276940421998,-0.6367653574310018,154.9393974030285
1699310164870,-300.7064733721998,-0.6397305544310018,155.0152588330285
1699310164882,-300.6840203021998,-0.6425955204310018,155.0904906530285
1699310164897,-300.6606088521998,-0.6454314784310018,155.1652437130285
1699310164911,-300.6367190321998,-0.6471745884310018,155.2392358030285
1699310164925,-300.6125889721998,-0.6474829153310019,155.3123835630285
1699310164939,-300.5885657121998,-0.6469256545310019,155.3848896230285
1699310164951,-300.56456317219977,-0.6457521225310019,155.4563288930285
1699310164967,-300.54048463219976,-0.6443908305310019,155.52655413302853
1699310164980,-300.5164720521998,-0.6425322645310019,155.59529077302852
1699310164993,-300.4930236621998,-0.6397891755310019,155.66230390302852
1699310165009,-300.4699605121998,-0.6363204925310019,155.72698679302852
1699310165021,-300.4473257821998,-0.6326408245310019,155.7892504330285
1699310165035,-300.4254854721998,-0.6287165255310019,155.8490110230285
1699310165049,-300.4049572921998,-0.6243635245310019,155.9059898130285
1699310165065,-300.38609025219984,-0.6197471045310019,155.9597991130285
1699310165079,-300.3692117421998,-0.6152580525310019,156.01056916302852
1699310165092,-300.3543017221998,-0.6114153325310019,156.0578624730285
1699310165106,-300.3413004621998,-0.6083817665310018,156.10155392302852
1699310165119,-300.3301528421998,-0.6067717665310018,156.14193146302853
1699310165136,-300.3209709611998,-0.6070444237310019,156.1785798230285
1699310165148,-300.3131106671998,-0.6082640137310019,156.2122086430285
1699310165162,-300.30675750419977,-0.6097853707310019,156.2430749530285
1699310165174,-300.30197390519976,-0.610896544731002,156.2711222930285
1699310165188,-300.29884037019974,-0.611213540331002,156.2966494030285
1699310165202,-300.2972930161997,-0.6103247657310019,156.31985288302852
1699310165216,-300.2975646969997,-0.6083818177310019,156.34086237302853
1699310165231,-300.2997284349997,-0.6054112937310019,156.36003118302852
1699310165244,-300.30377736699967,-0.6021003037310019,156.37744671302852
1699310165258,-300.3094606429997,-0.5988650707310019,156.3933632630285
1699310165272,-300.31645872599967,-0.5961871147310019,156.4072781130285
1699310165285,-300.3246456829997,-0.5944603967310019,156.4195140630285
1699310165301,-300.33429760099966,-0.5938929387310019,156.4302092430285
1699310165315,-300.34554928099965,-0.593698719631002,156.43896107302848
1699310165329,-300.3583070709997,-0.593902371431002,156.44568100702847
1699310165342,-300.3725981509997,-0.594285537031002,156.45042843902846
1699310165355,-300.3884491409997,-0.5947447636310019,156.45313167202846
1699310165369,-300.4056437609997,-0.595846948631002,156.45417949202846
1699310165383,-300.42392609099966,-0.597683460631002,156.45328331732847
1699310165398,-300.44288187099966,-0.600089960631002,156.45043948032847
1699310165412,-300.4621716609997,-0.603743011631002,156.44561621932846
1699310165425,-300.48159934099965,-0.608096421631002,156.43885020032846
1699310165438,-300.5011514109996,-0.612830763631002,156.43034916832846
1699310165452,-300.52054022099964,-0.617912618631002,156.42005132832847
1699310165466,-300.53972336099963,-0.622849742631002,156.40793577832846
1699310165480,-300.5582922509996,-0.628011666631002,156.39387817832846
1699310165493,-300.5763603509996,-0.6331636506310021,156.37865374832847
1699310165507,-300.5936540209996,-0.6379904366310021,156.36247868832848
1699310165523,-300.61006589099964,-0.6425720146310021,156.34553391832847
1699310165536,-300.6251824009996,-0.6466850416310022,156.32782278832846
1699310165549,-300.6392056409996,-0.6505524636310022,156.30977110832845
1699310165565,-300.6521920809996,-0.6541057116310022,156.29156159832846
1699310165577,-300.66395830099964,-0.6573324296310021,156.27338049832846
1699310165591,-300.6745544709996,-0.6602089146310022,156.25534293832845
1699310165605,-300.6838503219996,-0.6625604286310022,156.23738842832844
1699310165619,-300.69200536699964,-0.6640918826310022,156.21955200832844
1699310165634,-300.69912684199966,-0.6649790807310022,156.20180555832843
1699310165649,-300.70529088499967,-0.6652420574310022,156.18416362832843
1699310165661,-300.7104953029997,-0.6651141009310022,156.16655107832844
1699310165674,-300.7147819919997,-0.6649308229310023,156.14886946832843
1699310165688,-300.7185737829997,-0.6643974269310022,156.13103007832842
1699310165703,-300.72214142899975,-0.6633190589310022,156.11309090832842
1699310165717,-300.72537115799975,-0.6622508149310021,156.0951980283284
1699310165731,-300.72786737399974,-0.6613782125310022,156.0769277383284
1699310165745,-300.72956810199975,-0.6605570252310021,156.0581736383284
1699310165760,-300.73037687159973,-0.6594171992310022,156.03922581832842
1699310165774,-300.7304544060697,-0.6580643532310022,156.0203352983284
1699310165786,-300.72976989286974,-0.6564289712310022,156.0013007283284
1699310165802,-300.7279077528697,-0.6550030222310022,155.9820531783284
1699310165814,-300.72505602986973,-0.6535375042310021,155.96274463832842
1699310165827,-300.72130851586974,-0.651714305231002,155.94331751832843
1699310165842,-300.7169624218697,-0.649499511231002,155.92389907832842
1699310165856,-300.71206561586973,-0.646696770231002,155.90422379832842
1699310165869,-300.7067798358697,-0.643412780231002,155.8842210783284
1699310165883,-300.70094120686974,-0.640088258231002,155.8640193083284
1699310165897,-300.69464104886976,-0.636865149231002,155.8439246183284
1699310165909,-300.68797594386973,-0.634019451231002,155.8241595883284
1699310165925,-300.6807418668697,-0.631844301231002,155.8045673183284
1699310165939,-300.6731934388697,-0.630272441231002,155.7854344383284
1699310165951,-300.6654439708697,-0.6284717122310021,155.76637545832838
1699310165967,-300.65781152886973,-0.6266280982310021,155.7474580183284
1699310165981,-300.65024625886974,-0.623854930231002,155.7285528683284
1699310165993,-300.6426898228697,-0.621004192231002,155.7092557183284
1699310166007,-300.6349616108697,-0.6184186662310021,155.6894007983284
1699310166021,-300.6272078458697,-0.617133751231002,155.66942089832838
1699310166038,-300.6191507148697,-0.616852394131002,155.6493148383284
1699310166050,-300.6107930138697,-0.616998940431002,155.6285881483284
1699310166065,-300.60244889986967,-0.616428765731002,155.6071655483284
1699310166079,-300.59440471986966,-0.614599697731002,155.58533043832838
1699310166091,-300.58647661286966,-0.611285534731002,155.5629830483284
1699310166106,-300.57882726986963,-0.607592653731002,155.5405272683284
1699310166120,-300.5710675818696,-0.604440475731002,155.51786635832838
1699310166133,-300.5635095278696,-0.602515719731002,155.49513794832836
1699310166147,-300.5561152608696,-0.601769553331002,155.47223016832837
1699310166163,-300.5488739808696,-0.6016361666310021,155.44936895832836
1699310166177,-300.5420308788696,-0.601601590351002,155.42678664832837
1699310166191,-300.5351949508696,-0.601531191011002,155.40426673832835
1699310166203,-300.5283535448696,-0.601915233211002,155.38214004832838
1699310166216,-300.5212929518696,-0.603140608211002,155.36044492832838
1699310166230,-300.5141107638696,-0.605302832211002,155.33934620832838
1699310166244,-300.5068375648696,-0.608366336211002,155.31904364832835
1699310166260,-300.4995282958696,-0.611542328211002,155.29940196832837
1699310166271,-300.4924321138696,-0.614139584211002,155.28046208832836
1699310166286,-300.4851698958696,-0.616343434211002,155.26199332832837
1699310166300,-300.4774618568696,-0.618300505211002,155.24413442832838
1699310166315,-300.4691893948696,-0.6203981592110019,155.2269076783284
1699310166327,-300.4601413598696,-0.6228669342110019,155.2101952683284
1699310166341,-300.45045768086965,-0.6249940132110019,155.1941471383284
1699310166357,-300.4400469808696,-0.6262947132110019,155.17872247832838
1699310166371,-300.4288356008696,-0.6263268893010019,155.1637517383284
1699310166384,-300.4168468808696,-0.6250801213010019,155.14953200832838
1699310166398,-300.40369345086964,-0.6234845833010019,155.1363302483284
1699310166411,-300.38934508086965,-0.6216316183010019,155.1245320383284
1699310166427,-300.37363932086964,-0.6202603183010019,155.11448317832838
1699310166439,-300.3567315808696,-0.6195438744010019,155.10633913732838
1699310166451,-300.3388929108696,-0.6187820291010019,155.10002571332836
1699310166466,-300.32048983086963,-0.6178792140010019,155.09537314932837
1699310166480,-300.3015075308696,-0.6164423770010019,155.09248353932836
1699310166495,-300.2815747608696,-0.6149040220010019,155.09148874732836
1699310166510,-300.2600652408696,-0.6145202537010019,155.09308142432835
1699310166521,-300.23682396086963,-0.6155181738010019,155.09747813232835
1699310166535,-300.2120052208696,-0.6170932178010019,155.10499786132834
1699310166550,-300.1857278408696,-0.6184562178010019,155.11563353132834
1699310166565,-300.1577675408696,-0.6192273662010019,155.12927705132833
1699310166579,-300.1279167208696,-0.6200848233010019,155.14644043132833
1699310166592,-300.0962449508696,-0.6213171233010019,155.16721892132833
1699310166607,-300.0625193608696,-0.6228951123010018,155.19171851132833
1699310166620,-300.0272298108696,-0.6241404813010019,155.21987919132837
1699310166635,-299.9908048608696,-0.6244554672010019,155.25172547132834
1699310166648,-299.9534983008696,-0.6240357611010019,155.28704578132837
1699310166661,-299.9153840508696,-0.622852157101002,155.32539807132835
1699310166675,-299.8769615508696,-0.6210140121010019,155.36675786132835
1699310166689,-299.8386541608696,-0.6181869381010019,155.41052991132835
1699310166704,-299.8006045108696,-0.6145629501010019,155.45642206132834
1699310166716,-299.7629044808696,-0.6106812071010019,155.50380444132833
1699310166731,-299.72594227086955,-0.6066905631010019,155.55209998132833
1699310166745,-299.6897339308696,-0.6025090851010019,155.6009329613283
1699310166759,-299.6553945708696,-0.5978697881010019,155.65069266132832
1699310166773,-299.6230195408696,-0.5924534891010019,155.7005306513283
1699310166786,-299.59272640086954,-0.5866108341010019,155.75014460132832
1699310166799,-299.5640787008695,-0.5808688691010019,155.7987086713283
1699310166815,-299.5373827008695,-0.5750068131010019,155.8458449213283
1699310166827,-299.5132047008695,-0.5684550791010019,155.8906863513283
1699310166840,-299.4917066308695,-0.5613807951010019,155.9336319213283
1699310166855,-299.47261131086947,-0.5545961591010019,155.9741161113283
1699310166869,-299.45552747086947,-0.5489200721010019,156.0123177013283
1699310166883,-299.4405872308695,-0.5442935571010019,156.0481419313283
1699310166898,-299.4278720308695,-0.5400683571010019,156.0816277213283
1699310166911,-299.41716124086946,-0.5360160961010019,156.11230271132828
1699310166926,-299.40782734186945,-0.5332529451010019,156.1401887313283
1699310166940,-299.39984288286945,-0.5322851186010018,156.1655340713283
1699310166952,-299.39281018586945,-0.5326219830010018,156.18835528132828
1699310166967,-299.38701893886946,-0.5338891150010018,156.20838517132827
1699310166981,-299.38228508486947,-0.5351263880010018,156.22554902132828
1699310166995,-299.3787673218695,-0.5361859280010017,156.24030513132828
1699310167008,-299.3759017368695,-0.5372303430010017,156.25252080132827
1699310167022,-299.3732311948695,-0.5386327700010017,156.26200927332826
1699310167036,-299.3709382108695,-0.5398978280010017,156.26877687432827
1699310167049,-299.3689456688695,-0.5409183360010017,156.27279637132827
1699310167062,-299.3672043548695,-0.5421290460010016,156.27438567432827
1699310167077,-299.3657090058695,-0.5439215190010016,156.27387910372826
1699310167092,-299.3645020898695,-0.5462816270010016,156.27169618672826
1699310167107,-299.3638953611695,-0.5487429740010016,156.26834923772827
1699310167120,-299.3641468394695,-0.5505819940010016,156.26381397572828
1699310167134,-299.3657853644695,-0.5509907972010016,156.2583948607283
1699310167147,-299.3685038924695,-0.5505411581010017,156.25180528972828
1699310167160,-299.3723683084695,-0.5495135321010017,156.24426269972827
1699310167175,-299.3771460204695,-0.5492339610010017,156.23567086572828
1699310167189,-299.3827145514695,-0.5499220620010018,156.2264832097283
1699310167205,-299.3890563584696,-0.5518260220010018,156.2165508767283
1699310167216,-299.3963632494695,-0.5551813340010019,156.2065462967283
1699310167231,-299.4044369944695,-0.5600319480010019,156.1969795847283
1699310167245,-299.4132115734695,-0.5666025740010019,156.1882991127283
1699310167258,-299.4226964574695,-0.5746635460010019,156.18099226372829
1699310167272,-299.4327597374695,-0.5837859660010019,156.17489664972828
1699310167285,-299.4433481374695,-0.5932025760010019,156.1703459157283
1699310167300,-299.4543657874695,-0.6026733690010019,156.1669289327283
1699310167314,-299.4659194674695,-0.6112835330010019,156.1647818797283
1699310167328,-299.4774076174695,-0.6185146130010019,156.1631126787283
1699310167343,-299.4883808374695,-0.6242562020010018,156.16186039072832
1699310167358,-299.4985704674695,-0.6290959830010019,156.16088232182832
1699310167371,-299.5079819884695,-0.6333695850010019,156.16034191872834
1699310167383,-299.5167526154695,-0.6372386570010019,156.16046553582834
1699310167398,-299.5245176864695,-0.6406270490010019,156.16096570342833
1699310167411,-299.5313517494695,-0.6435544150010019,156.16157160022834
1699310167427,-299.5371141194695,-0.6466500060010019,156.16228799082833
1699310167442,-299.5418628394695,-0.6494862550010019,156.16326748112834
1699310167454,-299.5457001424695,-0.6515384250010019,156.16405212402833
1699310167468,-299.5484073884695,-0.6532128550010019,156.16451477832834
1699310167482,-299.5499661844695,-0.654398002001002,156.16436062062834
1699310167494,-299.5507375239695,-0.6552308032010019,156.16405169132835
1699310167508,-299.5508696108695,-0.655905277901002,156.16360803112835
1699310167522,-299.5502122087695,-0.656462771801002,156.16307774142834
1699310167538,-299.5487487687695,-0.657364005101002,156.16233266632833
1699310167551,-299.5464819967695,-0.658128209701002,156.16109418732833
1699310167564,-299.5438689367695,-0.6590612523010021,156.15968814232832
1699310167578,-299.54088807076954,-0.6603250733010021,156.15820762632833
1699310167593,-299.53777477576955,-0.661589940301002,156.15619598732837
1699310167606,-299.5345444917696,-0.6628416583010021,156.15399548532835
1699310167618,-299.53145648376955,-0.6636730661010021,156.15112690932835
1699310167633,-299.52876182076955,-0.6639902137010021,156.14795646932836
1699310167646,-299.5260864897696,-0.6641711552010021,156.14434465332835
1699310167662,-299.5230812767696,-0.6653498592010021,156.14075350832837
1699310167676,-299.5196389607696,-0.6674865932010021,156.13719662832838
1699310167688,-299.5161582367696,-0.6700851102010021,156.13403166732837
1699310167702,-299.5131863857696,-0.6724143052010021,156.13128684432837
1699310167716,-299.5109338947696,-0.673926262201002,156.12885555832838
1699310167732,-299.5092456997696,-0.6750944832010021,156.1268252873284
1699310167744,-299.50767313176965,-0.6761596502010021,156.1249319483284
1699310167760,-299.5062609397697,-0.6777944882010021,156.1237442133284
1699310167773,-299.5050610167697,-0.6797072272010021,156.1230149935284
1699310167786,-299.50410683326965,-0.6817365502010021,156.1228189293284
1699310167801,-299.5035160696697,-0.6837524652010021,156.12318022332838
1699310167815,-299.50307218226965,-0.6851941852010021,156.12382726282837
1699310167827,-299.50283331186967,-0.686022250201002,156.12503305482838
1699310167840,-299.5027158360697,-0.686278362001002,156.1265056808284
1699310167855,-299.50264706150966,-0.686666896601002,156.1284727888284
1699310167869,-299.50249215250966,-0.687111352501002,156.13056964882838
1699310167884,-299.50231965140966,-0.687961083901002,156.13289017582838
1699310167898,-299.5022797487197,-0.6893300449010019,156.1353496738284
1699310167915,-299.5023948290197,-0.6911057509010019,156.13811389382838
1699310167924,-299.5022656960197,-0.6934491799010019,156.14121009182838
1699310167938,-299.50171590191974,-0.6960602739010019,156.14479717882838
1699310167951,-299.50086981761973,-0.6988138119010019,156.1488362108284
1699310167967,-299.4995770466197,-0.7016125769010019,156.1534564728284
1699310167981,-299.4978534956197,-0.7042824709010018,156.1583715498284
1699310167992,-299.49583213861973,-0.7069380819010018,156.1635019398284
1699310168006,-299.49330183961973,-0.7095812229010018,156.1689005728284
1699310168020,-299.4903718376197,-0.7121069419010018,156.1747291018284
1699310168035,-299.4870547016197,-0.7143716039010017,156.1810257278284
1699310168048,-299.4836461156197,-0.7156327539010018,156.1878923648284
1699310168064,-299.4802433486197,-0.7165348341010018,156.1947069288284
1699310168077,-299.4770163106197,-0.7167316841010019,156.2012756698284
1699310168091,-299.4739538006197,-0.7172643105010018,156.20803951782838
1699310168104,-299.47074338761973,-0.7185104015010018,156.21502847282838
1699310168116,-299.4673905076197,-0.7207331645010018,156.22218818882837
1699310168132,-299.4637846736197,-0.7238524365010017,156.22952653782838
1699310168146,-299.46024668861975,-0.7270171715010018,156.23694060682837
1699310168159,-299.4567446946198,-0.7303798885010018,156.24407687082837
1699310168173,-299.4532641366198,-0.7336283425010017,156.25077418782837
1699310168187,-299.4497681116198,-0.7363022425010017,156.25690839482837
1699310168202,-299.4459907076198,-0.7382768685010017,156.2623244308284
1699310168216,-299.44161291161976,-0.7405957605010017,156.26715403382838
1699310168229,-299.43641656061976,-0.7434840925010018,156.27132464382836
1699310168242,-299.43050876361974,-0.7468526415010018,156.27471667182837
1699310168256,-299.42407517461976,-0.7503166475010018,156.27765444582838
1699310168271,-299.41709699861974,-0.7532480595010018,156.27997736982837
1699310168285,-299.4095940686197,-0.7551581165010018,156.28145393282838
1699310168300,-299.4013736426198,-0.7562154405010019,156.28215095602835
1699310168315,-299.3922071776197,-0.7562893783710019,156.28232842962836
1699310168327,-299.3825751176197,-0.7553077928710018,156.28183841292835
1699310168338,-299.37263627961977,-0.7533373658710018,156.28104601092835
1699310168351,-299.3625462996198,-0.7505403058710017,156.27984165892835
1699310168365,-299.35221806961977,-0.7474935138710017,156.27786311992836
1699310168380,-299.3419263596198,-0.7445888498710017,156.27546015192834
1699310168395,-299.3314163396197,-0.7419779328710017,156.27322669592834
1699310168409,-299.32057779961974,-0.7401137078710016,156.27114214192835
1699310168424,-299.3094676596197,-0.7385682038710016,156.26925207392836
1699310168437,-299.2983806696197,-0.7371195618710016,156.26754578692837
1699310168451,-299.28754769961967,-0.7357896718710016,156.26660808602836
1699310168466,-299.27687279961964,-0.7345631738710017,156.26614094872835
1699310168479,-299.2665206396196,-0.7335404268710016,156.26627628032836
1699310168493,-299.25647178961964,-0.7326441988710016,156.26689849342836
1699310168506,-299.24677998961965,-0.7316255918710016,156.26774704242837
1699310168520,-299.23732395361964,-0.7307062127710017,156.26878536142837
1699310168534,-299.2281100426196,-0.7299396871710017,156.26990586142838
1699310168548,-299.21906330261965,-0.7296690063710016,156.27078940982838
1699310168563,-299.21003413961967,-0.7298587926710016,156.27142473342838
1699310168577,-299.20079150861966,-0.7308893076710016,156.27192636982838
1699310168589,-299.19135394061965,-0.7325546886710016,156.2721245004284
1699310168603,-299.18205964561963,-0.7338498116710016,156.2721791135384
1699310168616,-299.17304075461965,-0.7345853241710016,156.27199495543837
1699310168631,-299.1643727786196,-0.7345330550310016,156.27151132983838
1699310168646,-299.15574881561963,-0.7346793507310017,156.27093286333837
1699310168660,-299.14694964061965,-0.7350708301310016,156.27011903383837
1699310168674,-299.13805749361967,-0.7361562511310016,156.26945653763838
1699310168687,-299.12897560861967,-0.7375603901310016,156.26885480833838
1699310168700,-299.1198606286197,-0.7389190321310016,156.26849003723837
1699310168716,-299.1107226326197,-0.7397314016310016,156.26849550235536
1699310168728,-299.1019059186197,-0.7400088482310015,156.26929811815538
1699310168744,-299.0934498006197,-0.7395228120310016,156.27080969115536
1699310168755,-299.0848048196197,-0.7389986503310015,156.27255476415536
1699310168770,-299.0758601266197,-0.7388875835310016,156.27451310715537
1699310168783,-299.06645804661974,-0.7392402780310016,156.27679567615536
1699310168797,-299.05647553561977,-0.7397676423310016,156.27907686215536
1699310168812,-299.04603468561976,-0.7402648960310015,156.28161808815537
1699310168825,-299.03514178561977,-0.7399133917310016,156.28461772715536
1699310168838,-299.0237405056198,-0.7390213172310016,156.28797770415537
1699310168852,-299.0115613756198,-0.7377384202310017,156.29146861315536
1699310168866,-298.9987530756198,-0.7357047902310017,156.29511843515536
1699310168880,-298.9857183956198,-0.7329548372310016,156.29871659415537
1699310168895,-298.9725630556198,-0.7292344462310016,156.30189163615535
1699310168909,-298.95940700561977,-0.7242979732310016,156.30454040415538
1699310168926,-298.9464059256198,-0.7182002542310016,156.30630091215536
1699310168939,-298.9338003756198,-0.7109182952310017,156.30722982005537
1699310168952,-298.92135872561977,-0.7028694452310017,156.30721796012537
1699310168967,-298.9092304956198,-0.6947488202310017,156.30668303442536
1699310168980,-298.8972593356198,-0.6866141552310017,156.30565846642537
1699310168993,-298.88562588561985,-0.6786487662310017,156.30424244942537
1699310169008,-298.8744747556199,-0.6706311382310016,156.30285546142537
1699310169021,-298.8637766856199,-0.6624462562310016,156.30166723842535
1699310169031,-298.8533556856199,-0.6543850442310016,156.30076381072536
1699310169045,-298.84314083561986,-0.6457401412310017,156.30008113752535
1699310169059,-298.83317343261984,-0.6357674862310017,156.29998825532536
1699310169075,-298.82305629261987,-0.6240232962310016,156.30022761152537
1699310169089,-298.8125696026199,-0.6106388362310016,156.30094101172537
1699310169103,-298.8015125226199,-0.5965935062310016,156.30217086172536
1699310169116,-298.7895996026199,-0.5825560362310016,156.30391182872535
1699310169131,-298.7769879526199,-0.5687623762310016,156.30623423372535
1699310169145,-298.76392089261986,-0.5551432162310016,156.30872714172534
1699310169158,-298.75084839261984,-0.5415201462310016,156.31139747472534
1699310169172,-298.73797591261985,-0.5278418262310016,156.31394424172535
1699310169186,-298.7253693226198,-0.5151734762310016,156.31653887372536
1699310169200,-298.71327116261983,-0.5032410262310016,156.31897436772536
1699310169214,-298.70130305261983,-0.4916951462310016,156.32085258772537
1699310169228,-298.68957262261983,-0.4807701562310016,156.32229853472538
1699310169242,-298.6777116126198,-0.4702186662310016,156.32266331822538
1699310169255,-298.6660096726198,-0.4600306962310016,156.32219943682537
1699310169269,-298.6545216426198,-0.4503431662310016,156.32115678682538
1699310169283,-298.6438278026198,-0.4409033962310016,156.31962965282537
1699310169298,-298.6338580806198,-0.4322348182310016,156.31750661982537
1699310169311,-298.6246399916198,-0.4236689792310016,156.31476027982538
1699310169326,-298.6162042966198,-0.4157447892310016,156.31158578382536
1699310169340,-298.6086461126198,-0.4084126582310016,156.30834513782537
1699310169352,-298.6015146486198,-0.4017816602310016,156.30448508382537
1699310169366,-298.5949723126198,-0.3963244012310016,156.30047134482538
1699310169380,-298.5889694766198,-0.3915742612310016,156.2960563658254
1699310169393,-298.5835994476198,-0.3871244692310016,156.29150280382538
1699310169408,-298.5787456596198,-0.3827810762310016,156.28671911682537
1699310169422,-298.5742478976198,-0.3786829822310016,156.28189007282538
1699310169436,-298.57004124261977,-0.3749809822310016,156.27718929582537
1699310169450,-298.5659391616198,-0.3716491142310016,156.27225591582535
1699310169464,-298.56192624461977,-0.3689253372310016,156.26720956682536
1699310169477,-298.5581235426198,-0.3662266962310016,156.26189364782536
1699310169491,-298.5547759336198,-0.3638434072310016,156.25630102382536
1699310169505,-298.5521254116198,-0.3613573022310016,156.25055010882537
1699310169519,-298.5501356026198,-0.3587754512310016,156.24437166682537
1699310169533,-298.54892671961977,-0.3559377722310016,156.23760747882537
1699310169550,-298.5482905735197,-0.3532881362310016,156.23013460282536
1699310169561,-298.5483345385797,-0.3505160902310016,156.22200574882535
1699310169574,-298.54885812297977,-0.3475831492310016,156.21300594282536
1699310169588,-298.5499012329798,-0.3445009642310015,156.20327219282535
1699310169602,-298.5513964829798,-0.3415434222310016,156.19282451282535
1699310169616,-298.5532837949798,-0.3389669622310016,156.18156977282536
1699310169632,-298.5556539099798,-0.3371836372310016,156.16964831282536
1699310169645,-298.5587795059798,-0.3356066222310016,156.15706219282535
1699310169657,-298.56256081097985,-0.3345154182310015,156.14395013282535
1699310169671,-298.5670644899798,-0.3339704454310016,156.13021726282534
1699310169685,-298.5723142429798,-0.3338809848010016,156.11603075282534
1699310169700,-298.5785775419798,-0.3344172588010016,156.10139784282535
1699310169713,-298.58561924597984,-0.3350810221010016,156.08644285282534
1699310169727,-298.59328752097986,-0.3359138145010016,156.07146071282534
1699310169741,-298.6013824349799,-0.3373065675010016,156.05659828282535
1699310169756,-298.60977660497986,-0.3393174575010016,156.04198883282535
1699310169770,-298.61833978597986,-0.3417743585010016,156.02788609282536
1699310169783,-298.62686334797985,-0.3443726695010016,156.01407380282535
1699310169796,-298.63550714897985,-0.3466745895010016,156.00096649282534
1699310169810,-298.64437020597984,-0.3489842055010017,155.98870673282534
1699310169825,-298.65327058697983,-0.3514321115010017,155.97752667282535
1699310169839,-298.66225879997984,-0.3541075945010016,155.96734101282536
1699310169852,-298.6713187559798,-0.3566892755010016,155.95823004782537
1699310169867,-298.68013852897985,-0.3593961135010016,155.94992977582535
1699310169880,-298.68866765797986,-0.3624079425010016,155.94269601682535
1699310169895,-298.69686058297987,-0.3653752195010016,155.93653683982535
1699310169908,-298.7044991449799,-0.3678040555010016,155.93106411882536
1699310169922,-298.7117559809799,-0.3696315715010016,155.92649123382537
1699310169937,-298.71840918497986,-0.3708897465010016,155.92276445482537
1699310169951,-298.7244597379799,-0.3714915416010016,155.91978834182538
1699310169965,-298.7297840639799,-0.3714821507260016,155.9171976528254
1699310169978,-298.7344916049799,-0.3713430792260016,155.91528454082538
1699310169991,-298.7384948229799,-0.3712137794260016,155.91359102982537
1699310170006,-298.7419821129799,-0.3709703759260016,155.91181143582537
1699310170019,-298.7450915859799,-0.3705889451260016,155.91027149182537
1699310170034,-298.7474890299799,-0.3703157224260016,155.90873827482537
1699310170047,-298.74884347097986,-0.3704098700560015,155.90689688382537
1699310170062,-298.74921119657984,-0.3707674279560016,155.90504378682536
1699310170075,-298.74890482077984,-0.3710866323560016,155.90326154482537
1699310170088,-298.74806820697984,-0.3711541217560016,155.90150357882536
1699310170102,-298.74676376597984,-0.3708882507560016,155.89960647482536
1699310170116,-298.7450564179798,-0.3701413284560016,155.89741250882537
1699310170131,-298.7431194009798,-0.3692725654560016,155.89510620382538
1699310170145,-298.7409167669798,-0.3685416671560016,155.89263890282538
1699310170160,-298.7384903469798,-0.3678309487560016,155.8899985218254
1699310170172,-298.7358362409798,-0.3672739006560016,155.8872076448254
1699310170186,-298.7330913459798,-0.3667485661560016,155.8843964238254
1699310170200,-298.7303805019798,-0.3662895356560016,155.8813832398254
1699310170214,-298.7276187119798,-0.3661388232560016,155.8783160288254
1699310170228,-298.7249240379798,-0.3661694317260017,155.8754415218254
1699310170243,-298.7222412649798,-0.3661571436760017,155.8727401388254
1699310170256,-298.7195078099798,-0.3663404193760017,155.8702915568254
1699310170269,-298.7167414289798,-0.3667565950760017,155.86815016382542
1699310170283,-298.7140822199798,-0.3673120591760017,155.8665115508254
1699310170297,-298.7114344319798,-0.3678942023760017,155.86485707682542
1699310170311,-298.7086724179798,-0.3685928322760017,155.86323644982542
1699310170325,-298.7059612339798,-0.3694736008760018,155.86196697482544
1699310170338,-298.70328254297976,-0.3704344251760018,155.86085202482545
1699310170352,-298.7004565789797,-0.3718561761760018,155.85997759362544
1699310170367,-298.69755064597973,-0.3734830681760018,155.85930103282544
1699310170381,-298.6945554599797,-0.3748912481760018,155.85874117862545
1699310170395,-298.6917302429797,-0.3760574041760017,155.85853809892546
1699310170408,-298.6890219589797,-0.3770510602760017,155.85860998337546
1699310170422,-298.68635720597973,-0.3779825227760017,155.85893286107546
1699310170436,-298.6834318419797,-0.3789238378760017,155.85933669587547
1699310170450,-298.6803740989797,-0.3800782818760017,155.85995432967547
1699310170464,-298.6773839169797,-0.3810120062760017,155.8607754082755
1699310170479,-298.6744182659797,-0.3818170189760017,155.8617314967755
1699310170492,-298.6715632999797,-0.3825018991760017,155.86279885577548
1699310170506,-298.6688181989797,-0.3830659753760017,155.8641418887755
1699310170519,-298.66601679497967,-0.3837642332760017,155.8657498757755
1699310170533,-298.66320605897965,-0.3845984111760017,155.8676419747755
1699310170547,-298.6605924929797,-0.3858295891760017,155.86983846477548
1699310170563,-298.65823445097965,-0.3869336841760017,155.87247039077548
1699310170575,-298.65617755597964,-0.3877736236760017,155.87550992877547
1699310170589,-298.6542596079796,-0.3883640435760018,155.87860013177547
1699310170604,-298.6524216619796,-0.3890830784760018,155.88174644877546
1699310170617,-298.6505589529796,-0.3898345256760018,155.88490584177546
1699310170633,-298.6487520949796,-0.3904234209760018,155.88815693477545
1699310170644,-298.64665103297955,-0.3913290867760018,155.89123651377545
1699310170658,-298.64450046597955,-0.3920076072760018,155.89449922777544
1699310170672,-298.6422423619795,-0.3925057833760018,155.89796906477545
1699310170687,-298.6399410189795,-0.3932472522760018,155.90174197677544
1699310170701,-298.6375870279795,-0.3939950822760018,155.90592207677545
1699310170716,-298.63511218697954,-0.3945381397760018,155.91046930677544
1699310170728,-298.6326211059795,-0.3951089451760018,155.91557109077544
1699310170742,-298.6299225889795,-0.3958745098760018,155.92108658777545
1699310170756,-298.62723048897954,-0.3964647102760018,155.92693774277544
1699310170771,-298.62443484397954,-0.3969109481760018,155.93323959877543
1699310170785,-298.6217742839796,-0.3973844067760018,155.93990772877544
1699310170798,-298.61920412597954,-0.3975702565760018,155.94691579177544
1699310170811,-298.6170470739796,-0.3977717381760018,155.95453413477543
1699310170826,-298.6151725189796,-0.3976575435760018,155.9626407647754
1699310170839,-298.6138422339796,-0.3977165155360018,155.97133179577543
1699310170853,-298.6130398755796,-0.3979025180360018,155.98027311277542
