time,rotate_x,rotate_y,rotate_z,angularVelocity_x,angularVelocity_y,angularVelocity_z,velocity_x,velocity_y,velocity_z,acceleration_x,acceleration_y,acceleration_z,position_x,position_y,position_z
2023-10-24 11:01:16.338000128,0.1154632,-0.01080201,0.005530694,0.006782803,-0.04949781,0.1168933,0.01159068,-0.002091943,-0.04566967,,,,0.2241423,1.802018,0.07190177
2023-10-24 11:01:16.348999936,0.115082,-0.01153189,0.01057427,-0.03867589,0.03084193,0.04196033,0.00124024,-0.004306082,-0.02844858,-0.01035044,-0.002214139,0.01722109,0.2247755,0.04630397,0.06616987
2023-10-24 11:01:16.364000000,0.1153221,-0.01089229,0.01002097,-0.03053985,0.04170513,0.01880163,-0.0001048947,-0.003178466,-0.02687016,-0.0013451347,0.001127616,0.00157842,0.2246757,0.04672626,0.06585623
2023-10-24 11:01:16.384999936,0.1177553,-0.009365518,0.01040924,0.02329019,0.06682439,-0.002763612,-0.00178565,0.001971578,-0.02388788,-0.0016807553,0.0051500439999999,0.00298228,0.2245391,0.04714649,0.06562514
2023-10-24 11:01:16.404000000,0.1198571,-0.007902253,0.01102464,0.07693939,0.09417921,-0.003931052,-0.002782597,0.006889057,-0.02173625,-0.000996947,0.004917479,0.00215163,0.2245718,0.04723107,0.06520166
2023-10-24 11:01:16.423000064,0.1203849,-0.006685454,0.01223705,0.09694497,0.1184965,0.01090252,-0.003811388,0.009921471,-0.01988615,-0.001028791,0.0030324139999999,0.0018501,0.2245606,0.04756864,0.06494361
2023-10-24 11:01:16.440000000,0.1213289,-0.005727213,0.01318305,0.09836945,0.1356404,0.02786347,-0.004447892,0.01148263,-0.01922898,-0.000636504,0.001561159,0.0006571699999999,0.2244538,0.04762572,0.06448145
2023-10-24 11:01:16.456999936,0.1217536,-0.004730191,0.01356609,0.09750336,0.1403787,0.02305854,-0.005528884,0.01176583,-0.01919794,-0.001080992,0.0002831999999999,3.103999999999954e-05,0.2242954,0.04776307,0.06410633
2023-10-24 11:01:16.472999936,0.1227916,-0.003569216,0.01332698,0.1056689,0.141382,0.008657511,-0.006376955,0.01156108,-0.01894654,-0.0008480709999999,-0.00020475,0.0002513999999999,0.2241997,0.04785751,0.06361201
2023-10-24 11:01:16.490000128,0.1241617,-0.002831262,0.01279473,0.1290041,0.1266876,-0.01895405,-0.006445811,0.01216177,-0.01870665,-6.885599999999995e-05,0.00060069,0.00023989,0.2240677,0.04793482,0.06320181
2023-10-24 11:01:16.506000128,0.1249038,-0.002123125,0.01280772,0.1306004,0.1159356,-0.03248013,-0.005903642,0.01186884,-0.0179729,0.000542169,-0.00029293,0.0007337499999999,0.2239819,0.04794668,0.06292325
2023-10-24 11:01:16.520999936,0.1248628,-0.001515016,0.0127762,0.1044901,0.1051534,-0.03478892,-0.005427771,0.009261358,-0.01741656,0.000475871,-0.0026074819999999,0.0005563399999999,0.2239784,0.04795112,0.06264818
2023-10-24 11:01:16.536999936,0.1249852,-0.0007679872,0.0126393,0.0788532,0.1042987,-0.03553728,-0.004358928,0.006508652,-0.01639498,0.0010688429999999,-0.002752706,0.00102158,0.2239467,0.04819568,0.06230397
2023-10-24 11:01:16.552000000,0.1254456,-2.441555e-05,0.01254969,0.0722854,0.09928297,-0.04233566,-0.002879794,0.005886568,-0.0158692,0.0014791339999999,-0.000622084,0.00052578,0.2239927,0.04830995,0.0619875
2023-10-24 11:01:16.566999808,0.1264437,0.0007838197,0.01228467,0.09118416,0.09311301,-0.04791238,-0.001706045,0.007640214,-0.01606797,0.001173749,0.001753646,-0.00019877,0.2240076,0.04844971,0.06170693
2023-10-24 11:01:16.581000192,0.1276874,0.00139688,0.01217553,0.1168131,0.09160319,-0.05528894,-0.0004235861,0.01045905,-0.01645254,0.0012824589,0.0028188359999999,-0.00038457,0.2240416,0.04867582,0.0614235
2023-10-24 11:01:16.596000000,0.1287368,0.002031028,0.0118542,0.1313086,0.0814525,-0.06006309,0.0009431217,0.01235871,-0.01733597,0.0013667078,0.00189966,-0.0008834299999999,0.224099,0.04892194,0.0609441
2023-10-24 11:01:16.609999872,0.129272,0.00250861,0.01173931,0.1223738,0.07096549,-0.06052447,0.002931981,0.01233729,-0.01872807,0.0019888593,-2.1419999999999426e-05,-0.0013921,0.2241505,0.04899542,0.06040623
2023-10-24 11:01:16.624999936,0.1296334,0.002875965,0.01168041,0.1014288,0.06000672,-0.04807039,0.004871685,0.01029071,-0.01981761,0.0019397039999999,-0.00204658,-0.00108954,0.2242324,0.04901143,0.0600093
2023-10-24 11:01:16.638000128,0.1297929,0.002943918,0.01174195,0.07931943,0.0499867,-0.0304442,0.007415659,0.007957245,-0.02046328,0.002543974,-0.002333465,-0.00064567,0.2244212,0.04910724,0.05967734
2023-10-24 11:01:16.653000192,0.1301467,0.002640553,0.01200228,0.06319351,0.03125112,-0.01131814,0.01026668,0.006801763,-0.02071907,0.002851021,-0.001155482,-0.0002557899999999,0.2245917,0.04919288,0.05939728
2023-10-24 11:01:16.668000000,0.1301908,0.002501227,0.01229783,0.05140992,0.01610447,0.01063919,0.0127837,0.005961081,-0.02115562,0.00251702,-0.0008406819999999,-0.00043655,0.2248698,0.0493149,0.05909043
2023-10-24 11:01:16.680999936,0.1302114,0.002161182,0.01230139,0.03253895,0.003725521,0.02116419,0.01556949,0.004606742,-0.02157858,0.00278579,-0.001354339,-0.00042296,0.2251299,0.04934599,0.05879245
2023-10-24 11:01:16.694000128,0.1302225,0.00172456,0.0125907,0.0229725,-0.01435492,0.0328377,0.01774641,0.003430965,-0.02236595,0.00217692,-0.0011757769999999,-0.0007873699999999,0.2254377,0.04945997,0.05845958
2023-10-24 11:01:16.709000192,0.1306862,0.001262955,0.0131979,0.02938673,-0.02710161,0.05466529,0.01992899,0.002992479,-0.02296102,0.00218258,-0.0004384859999999,-0.0005950699999999,0.2258161,0.04955385,0.05817658
2023-10-24 11:01:16.723000064,0.1312546,0.0005515963,0.01349609,0.04441527,-0.04273816,0.06840598,0.02172841,0.003588141,-0.02384849,0.0017994199999999,0.0005956619999999,-0.00088747,0.2261062,0.04960442,0.05774269
2023-10-24 11:01:16.736999936,0.1319062,-0.0003094301,0.014135,0.05620053,-0.05844646,0.08105883,0.02348984,0.004108569,-0.02508567,0.00176143,0.000520428,-0.00123718,0.2264349,0.049624,0.05729088
2023-10-24 11:01:16.752000000,0.1324628,-0.001325674,0.01466509,0.0688467,-0.07708187,0.1017812,0.02479269,0.004232596,-0.02675414,0.0013028499999999,0.0001240269999999,-0.0016684699999999,0.2267581,0.04972582,0.05682598
2023-10-24 11:01:16.765000192,0.1331416,-0.002380706,0.01497436,0.07359355,-0.08964086,0.1051516,0.02583594,0.004604727,-0.02796,0.00104325,0.000372131,-0.0012058599999999,0.2271012,0.04980217,0.05646783
2023-10-24 11:01:16.779000064,0.1337709,-0.003595468,0.01536468,0.08002866,-0.1088637,0.1086365,0.0262744,0.004736341,-0.02934318,0.0004384599999999,0.0001316139999999,-0.00138318,0.2274679,0.04989704,0.05609768
2023-10-24 11:01:16.793999872,0.1342229,-0.004644267,0.01574333,0.07442969,-0.1147892,0.1097406,0.02679294,0.004086528,-0.03062113,0.00051854,-0.000649813,-0.00127795,0.2278421,0.04994354,0.05566715
2023-10-24 11:01:16.808000000,0.1339832,-0.005853638,0.01573796,0.0481995,-0.1294816,0.1038224,0.02611888,0.001602824,-0.03217189,-0.00067406,-0.0024837039999999,-0.00155076,0.2281677,0.04997149,0.05524813
2023-10-24 11:01:16.823000064,0.1334821,-0.007038064,0.01602997,0.001966889,-0.1363415,0.09804484,0.02469472,-0.002144615,-0.03368848,-0.00142416,-0.003747439,-0.0015165899999999,0.2284535,0.04987473,0.05482201
2023-10-24 11:01:16.838000128,0.133368,-0.008074217,0.01607831,-0.02021704,-0.1344832,0.08843649,0.02285529,-0.00423483,-0.03415725,-0.0018394299999999,-0.002090215,-0.00046877,0.2287091,0.04985755,0.05442359
2023-10-24 11:01:16.852999936,0.1337019,-0.008911334,0.01608206,-0.006110697,-0.1302199,0.07550293,0.02067318,-0.003248547,-0.03410969,-0.00218211,0.000986283,4.7560000000002045e-05,0.2289477,0.04990568,0.05397401
2023-10-24 11:01:16.868000000,0.1342243,-0.009583049,0.01615712,0.02208055,-0.1207172,0.06109908,0.01821557,-0.001076029,-0.03430102,-0.0024576099999999,0.002172518,-0.00019133,0.2291075,0.04992556,0.05334799
2023-10-24 11:01:16.880999936,0.1345331,-0.0103228,0.01613043,0.03999169,-0.106836,0.04917227,0.01591978,0.0003934451,-0.03441439,-0.0022957899999999,0.0014694741,-0.00011337,0.2292018,0.0499299,0.05272621
2023-10-24 11:01:16.895000064,0.1348187,-0.01081823,0.01617425,0.03757923,-0.09466229,0.04370427,0.01357906,0.0002347154,-0.0343072,-0.00234072,-0.0001587297,0.00010719,0.2293569,0.0498499,0.0522613
2023-10-24 11:01:16.908000000,0.1348599,-0.01114607,0.01608356,0.02551877,-0.08176353,0.03295939,0.0112401,-0.0007651076,-0.03402664,-0.00233896,-0.000999823,0.00028056,0.2294688,0.04978853,0.05182796
2023-10-24 11:01:16.918999808,0.1347727,-0.01151433,0.016071,0.01484564,-0.06502542,0.02576503,0.009696748,-0.001661618,-0.033412,-0.0015433519999999,-0.0008965103999999,0.0006146399999999,0.229536,0.04978942,0.051418
2023-10-24 11:01:16.933000192,0.1348559,-0.01151489,0.01599967,0.01123173,-0.05339397,0.01716201,0.007692244,-0.002351025,-0.03247886,-0.002004504,-0.000689407,0.0009331399999999,0.2296495,0.04979012,0.0510244
2023-10-24 11:01:16.946000128,0.1351896,-0.0116707,0.01584959,0.02160508,-0.04113476,0.01114585,0.005944408,-0.002405467,-0.03147498,-0.001747836,-5.444200000000003e-05,0.0010038799999999,0.2296554,0.04983918,0.05060586
2023-10-24 11:01:16.960000000,0.1357979,-0.01165145,0.01573649,0.04050961,-0.02846163,0.004691518,0.004317084,-0.00140011,-0.03068555,-0.001627324,0.001005357,0.00078943,0.2296649,0.04989161,0.05019485
2023-10-24 11:01:16.973999872,0.1365436,-0.01156101,0.01574644,0.05995282,-0.02111539,-0.00621218,0.002971207,0.0004322289,-0.02973855,-0.0013458769999999,0.0018323389,0.0009469999999999,0.2297054,0.04992684,0.04981485
2023-10-24 11:01:16.988000000,0.1374123,-0.01145471,0.01557154,0.08078153,-0.01092692,-0.0134379,0.001940867,0.00165752,-0.02901535,-0.00103034,0.0012252911,0.0007232,0.2296643,0.04988526,0.0493812
2023-10-24 11:01:17.000999936,0.137514,-0.01117619,0.01546131,0.07199315,0.0004403261,-0.01421637,0.0008769743,0.001979284,-0.02849359,-0.0010638927,0.000321764,0.0005217599999999,0.229607,0.04986938,0.04893369
2023-10-24 11:01:17.015000064,0.1377135,-0.01107726,0.01553845,0.0599016,0.008656906,-0.009931847,-0.0001138245,0.001121953,-0.02783685,-0.0009907988,-0.000857331,0.0006567399999999,0.2294948,0.04979574,0.04848464
2023-10-24 11:01:17.028999936,0.1376411,-0.01089997,0.01564481,0.04300173,0.01153978,-0.0119841,-0.0007233191,6.520399e-05,-0.02721388,-0.0006094946,-0.00105674901,0.00062297,0.2294883,0.04976777,0.04810852
2023-10-24 11:01:17.043000064,0.1375318,-0.01072226,0.01560684,0.02321646,0.01761398,-0.01023606,-0.0007025271,-0.001597723,-0.02636956,2.0791999999999943e-05,-0.0016629269899999,0.0008443199999999,0.2294739,0.04966529,0.04774089
2023-10-24 11:01:17.058000128,0.1376365,-0.01057142,0.01571881,0.01051093,0.01791516,-0.00762402,-0.001013504,-0.002814645,-0.02577227,-0.0003109768999999,-0.001216922,0.00059729,0.2294484,0.04969984,0.04739802
2023-10-24 11:01:17.071000064,0.1380107,-0.0105191,0.01573668,0.01939568,0.02209155,-0.005579183,-0.0009298269,-0.001691479,-0.02476921,8.367709999999992e-05,0.001123166,0.00100306,0.229354,0.04987908,0.04702519
2023-10-24 11:01:17.084999936,0.1384753,-0.01030302,0.0159261,0.03972856,0.02025001,0.002748151,-0.00116828,0.0004120597,-0.02425444,-0.0002384531,0.0021035387,0.00051477,0.2293701,0.05013927,0.04669454
2023-10-24 11:01:17.098000128,0.1394311,-0.01021083,0.01585231,0.06386128,0.01515452,0.001774819,-0.0007207242,0.002409291,-0.02297031,0.0004475558,0.0019972313,0.0012841299999999,0.2294268,0.05015094,0.04640953
2023-10-24 11:01:17.111000064,0.1399741,-0.01022655,0.01578521,0.0773495,0.01119771,-0.002291609,0.000288328,0.003931495,-0.02176686,0.0010090522,0.001522204,0.00120345,0.2294002,0.05026447,0.04612548
2023-10-24 11:01:17.124000000,0.1406699,-0.0102607,0.01609687,0.08474013,0.007173469,0.007005165,0.0008604391,0.004732265,-0.0204252,0.0005721111,0.00080077,0.0013416599999999,0.229429,0.05030125,0.04586197
2023-10-24 11:01:17.139000064,0.1411742,-0.01031468,0.01643525,0.08374865,0.005066014,0.01732084,0.001409303,0.004433711,-0.01952063,0.0005488639,-0.000298554,0.00090457,0.2294432,0.05026148,0.04552529
2023-10-24 11:01:17.153000192,0.1413243,-0.01056677,0.01707966,0.06953719,0.007716665,0.04018377,0.002137919,0.002983224,-0.01855773,0.0007286159999999,-0.0014504869999999,0.0009628999999999,0.2294187,0.05032216,0.04521225
2023-10-24 11:01:17.167000064,0.1411748,-0.01080478,0.0172626,0.04474396,0.002176763,0.04668965,0.002465226,0.001520648,-0.01752404,0.000327307,-0.001462576,0.00103369,0.2294628,0.0503131,0.04501238
2023-10-24 11:01:17.180999936,0.1413136,-0.01103292,0.01727922,0.02801549,-0.005637398,0.04029567,0.002619629,0.0006802824,-0.01662597,0.000154403,-0.0008403656,0.00089807,0.2295043,0.05029819,0.04482259
2023-10-24 11:01:17.194000128,0.1415799,-0.01108997,0.01732895,0.02850588,-0.01006147,0.03032308,0.002930791,0.0004546414,-0.01552111,0.0003111619999999,-0.0002256409999999,0.00110486,0.2295659,0.05030815,0.04462996
2023-10-24 11:01:17.207000064,0.1416484,-0.01108972,0.01727343,0.0258083,-0.01368174,0.01810679,0.002613842,0.0007679938,-0.01484358,-0.0003169489999999,0.0003133523999999,0.0006775299999999,0.229611,0.05033713,0.04442316
2023-10-24 11:01:17.221999872,0.1419297,-0.01106655,0.01692316,0.02681036,-0.01165735,0.007782731,0.002426657,0.000774332,-0.01380664,-0.0001871849999999,6.338200000000007e-06,0.00103694,0.2296553,0.05033826,0.04424599
2023-10-24 11:01:17.236000000,0.1421078,-0.01103852,0.01703773,0.02593905,-0.006178801,-0.00214934,0.002406255,0.0007207423,-0.012689,-2.0402000000000094e-05,-5.358969999999996e-05,0.0011176399999999,0.2296862,0.05035019,0.04410078
2023-10-24 11:01:17.249000192,0.1423304,-0.01106032,0.01703292,0.02608064,-0.003539699,-0.004934914,0.002128447,0.0004058026,-0.01168912,-0.000277808,-0.0003149397,0.0009998799999999,0.2297062,0.05034696,0.0439688
2023-10-24 11:01:17.263000064,0.1422362,-0.01095686,0.01700202,0.01787256,0.0004729111,-0.004400562,0.001693214,-0.0002074615,-0.01078206,-0.0004352329999999,-0.0006132641,0.00090706,0.2296974,0.05033877,0.04376358
2023-10-24 11:01:17.276999936,0.1420557,-0.01079765,0.01695352,0.004386543,0.00627541,-0.007337707,0.001677624,-0.001645614,-0.01003766,-1.5590000000000005e-05,-0.0014381525,0.0007443999999999,0.2297022,0.05028288,0.04355971
2023-10-24 11:01:17.292000000,0.1413982,-0.01058046,0.01684168,-0.0132674,0.01345513,-0.01040081,0.001853647,-0.003472909,-0.009323415,0.0001760229999999,-0.001827295,0.000714245,0.2297245,0.05017737,0.04340685
2023-10-24 11:01:17.305000192,0.1412695,-0.01025729,0.01689315,-0.02700805,0.01648822,-0.01603412,0.001750267,-0.004190736,-0.008805795,-0.0001033799999999,-0.0007178269999999,0.0005176199999999,0.2297457,0.05009511,0.04328021
2023-10-24 11:01:17.318000128,0.1411932,-0.01001167,0.01687845,-0.02209091,0.02375553,-0.01126396,0.001694019,-0.004059196,-0.008539268,-5.624800000000006e-05,0.0001315399999999,0.000266527,0.2297671,0.05004904,0.04315802
2023-10-24 11:01:17.332999936,0.1414047,-0.00985517,0.01696675,-0.01008051,0.02722707,-0.01140056,0.001812014,-0.002825417,-0.008154771,0.000117995,0.001233779,0.0003844969999999,0.2297855,0.0501432,0.04306819
2023-10-24 11:01:17.346999808,0.1414861,-0.009541906,0.01697607,0.0007946306,0.03089918,-0.01589111,0.002015472,-0.001054844,-0.007645077,0.0002034579999999,0.001770573,0.0005096939999999,0.2298088,0.05027008,0.04297932
2023-10-24 11:01:17.360999936,0.1415502,-0.0092328,0.01695406,0.004341988,0.03468427,-0.01247921,0.002285866,-0.0001777154,-0.007124695,0.000270394,0.0008771286,0.0005203819999999,0.2298472,0.05030527,0.04288067
2023-10-24 11:01:17.375000064,0.1413233,-0.009139165,0.01733385,0.0004973853,0.03731394,-0.001960857,0.002226492,9.71544e-05,-0.00676463,-5.937400000000006e-05,0.0002748698,0.000360065,0.2298778,0.05033782,0.04278866
2023-10-24 11:01:17.388999936,0.1412805,-0.008995619,0.01755069,0.0008367202,0.03995338,0.005103758,0.002524143,6.3018e-05,-0.006440979,0.0002976509999999,-3.41364e-05,0.0003236509999999,0.2298882,0.05038082,0.04264363
2023-10-24 11:01:17.401999872,0.1413372,-0.008664336,0.0174632,-0.005162407,0.03219032,0.00261389,0.00265037,0.0004201614,-0.006485037,0.000126227,0.0003571434,-4.40579999999996e-05,0.229853,0.05045364,0.04241164
2023-10-24 11:01:17.415000064,0.1415736,-0.008631956,0.01756338,0.0006386919,0.02421135,0.003077934,0.002634173,0.0008320225,-0.006461231,-1.6196999999999913e-05,0.0004118611,2.3806000000000348e-05,0.2298233,0.05054217,0.04220852
2023-10-24 11:01:17.430000128,0.1418399,-0.008418728,0.01754215,0.01748541,0.02254228,-0.00364282,0.002826886,0.001784577,-0.006341251,0.0001927129999999,0.0009525545,0.0001199799999999,0.2298691,0.05059109,0.04210986
2023-10-24 11:01:17.444999936,0.1423721,-0.008363485,0.01737078,0.03506782,0.01607944,-0.007139343,0.002801857,0.002711565,-0.006287927,-2.5028999999999763e-05,0.0009269879999999,5.332400000000043e-05,0.2299063,0.05064438,0.04202043
2023-10-24 11:01:17.459000064,0.1427915,-0.008271519,0.01735857,0.04417991,0.01025638,-0.01048954,0.002639328,0.003016017,-0.006162503,-0.000162529,0.000304452,0.0001254239999999,0.2298971,0.05071822,0.04194347
2023-10-24 11:01:17.472999936,0.1429533,-0.008157827,0.01698458,0.03984592,0.01049047,-0.01588641,0.002500018,0.00303988,-0.006045192,-0.0001393099999999,2.386299999999984e-05,0.000117311,0.2298692,0.0507705,0.04187294
2023-10-24 11:01:17.486000128,0.1429102,-0.008099437,0.01709889,0.03122182,0.009049021,-0.01529752,0.00191054,0.001941214,-0.006104577,-0.000589478,-0.001098666,-5.938500000000034e-05,0.2298411,0.05079529,0.04179054
2023-10-24 11:01:17.500000000,0.1426983,-0.007866882,0.01692178,0.01224099,0.01268241,-0.01993136,0.001628917,0.001205891,-0.006564355,-0.000281623,-0.000735323,-0.000459778,0.229854,0.05077739,0.04167334
2023-10-24 11:01:17.513999872,0.1426919,-0.007683631,0.0170848,0.007119614,0.01481788,-0.01698106,0.001145566,0.0003079341,-0.007242783,-0.0004833509999999,-0.0008979569,-0.000678428,0.2298558,0.05076212,0.04153929
2023-10-24 11:01:17.526000128,0.1428538,-0.007430866,0.01701283,0.0106597,0.01918829,-0.01588447,0.0008026393,3.81837e-05,-0.008153453,-0.0003429267,-0.0002697504,-0.0009106699999999,0.2298445,0.05074513,0.04129638
2023-10-24 11:01:17.540000000,0.1432025,-0.007373791,0.01695712,0.01922123,0.01925167,-0.01286508,0.000378681,0.0009085415,-0.009213013,-0.0004239582999999,0.0008703577999999,-0.00105956,0.2298223,0.05077787,0.04101648
2023-10-24 11:01:17.555000064,0.1437609,-0.007195123,0.01712531,0.03431894,0.0205796,-0.007014118,-0.0001999032,0.00241348,-0.01005456,-0.0005785842,0.0015049385,-0.0008415469999999,0.2297954,0.0508638,0.04077384
2023-10-24 11:01:17.569999872,0.144138,-0.007056627,0.01711745,0.04704764,0.01931734,-0.003763422,-0.0007334001,0.003802986,-0.01071902,-0.0005334968999999,0.001389506,-0.0006644599999999,0.2297693,0.05095717,0.04059501
2023-10-24 11:01:17.582000128,0.144565,-0.006775048,0.01706872,0.05538005,0.01724536,-0.01004123,-0.001235795,0.004496973,-0.01118407,-0.0005023949,0.0006939869999999,-0.00046505,0.2297367,0.0510357,0.04040791
2023-10-24 11:01:17.596999936,0.1449509,-0.006654903,0.01702154,0.05636145,0.01673372,-0.01653386,-0.002015766,0.004638026,-0.01155964,-0.000779971,0.000141053,-0.0003755699999999,0.2296594,0.05112066,0.04025025
2023-10-24 11:01:17.611000064,0.1452404,-0.006426014,0.01664359,0.05526128,0.01722857,-0.02428841,-0.003049905,0.004215891,-0.01190298,-0.001034139,-0.0004221349999999,-0.00034334,0.2295589,0.0511587,0.04008625
2023-10-24 11:01:17.624999936,0.1457985,-0.006053887,0.01666978,0.05362989,0.02407627,-0.02806438,-0.003500989,0.003480346,-0.01201061,-0.000451084,-0.000735545,-0.0001076299999999,0.2294878,0.05118876,0.03989873
2023-10-24 11:01:17.638000128,0.1462143,-0.005651072,0.01677435,0.05815413,0.02707556,-0.02774506,-0.004004668,0.002819261,-0.01189228,-0.000503679,-0.000661085,0.0001183299999999,0.2294155,0.05120908,0.03970924
2023-10-24 11:01:17.652000000,0.1465696,-0.00543898,0.01662614,0.06031069,0.02743341,-0.02568123,-0.004757813,0.002801279,-0.01155544,-0.0007531449999999,-1.7982000000000154e-05,0.0003368399999999,0.2293123,0.05123391,0.03953244
2023-10-24 11:01:17.665999872,0.1468972,-0.005186372,0.01659521,0.06170632,0.03198346,-0.02460671,-0.0054342,0.002670749,-0.01126157,-0.000676387,-0.0001305299999999,0.0002938699999999,0.2291175,0.05125632,0.0392708
2023-10-24 11:01:17.680000000,0.1472821,-0.004849218,0.01659314,0.06092798,0.03590335,-0.02223936,-0.005938079,0.002104449,-0.01079752,-0.0005038789999999,-0.0005663,0.00046405,0.2289265,0.05125926,0.03902107
2023-10-24 11:01:17.694999808,0.1474628,-0.004490364,0.01649949,0.05129153,0.03530698,-0.02299295,-0.006381796,0.001254702,-0.01039655,-0.000443717,-0.000849747,0.00040097,0.2288027,0.05124099,0.03884609
2023-10-24 11:01:17.708000000,0.1475222,-0.004226092,0.01647235,0.03729186,0.03292685,-0.02766498,-0.00676294,0.0004548682,-0.009906896,-0.0003811439999999,-0.0007998337999999,0.0004896539999999,0.2286972,0.05121892,0.03870623
2023-10-24 11:01:17.721999872,0.1476352,-0.003991511,0.0162379,0.02877117,0.03328169,-0.03311541,-0.006826177,-0.0005514,-0.00916946,-6.323699999999984e-05,-0.0010062682,0.0007374359999999,0.2286237,0.05113206,0.03859159
2023-10-24 11:01:17.736000000,0.1476042,-0.003639452,0.01594853,0.01891353,0.02906866,-0.03961253,-0.006963536,-0.001131546,-0.008263848,-0.000137359,-0.000580146,0.000905612,0.2285755,0.05100802,0.03849295
2023-10-24 11:01:17.749000192,0.1477054,-0.003144331,0.01577826,0.01361758,0.02890366,-0.04170055,-0.006661835,-0.001802222,-0.007419995,0.000301701,-0.000670676,0.000843853,0.228537,0.05088845,0.03839112
2023-10-24 11:01:17.764000000,0.1474065,-0.003066447,0.01565799,0.006045572,0.02737626,-0.04120065,-0.006512368,-0.002745801,-0.006662659,0.0001494669999999,-0.0009435789999999,0.000757336,0.2284487,0.05081362,0.03831793
2023-10-24 11:01:17.778000128,0.1473252,-0.002897527,0.01538457,-0.004712344,0.02625921,-0.03971573,-0.006086679,-0.003698917,-0.005901943,0.0004256889999999,-0.000953116,0.0007607159999999,0.2283741,0.05071484,0.03825019
2023-10-24 11:01:17.792999936,0.1471305,-0.002697989,0.01509539,-0.01263096,0.01900417,-0.04004512,-0.006051255,-0.004349402,-0.005687067,3.5424000000000046e-05,-0.0006504849999999,0.000214876,0.2282307,0.05062626,0.03808326
2023-10-24 11:01:17.805999872,0.1470226,-0.002397891,0.01487161,-0.01700587,0.01668952,-0.04164897,-0.006014154,-0.00457347,-0.005807394,3.710100000000032e-05,-0.000224068,-0.0001203269999999,0.2280794,0.0505523,0.03788067
2023-10-24 11:01:17.820000000,0.1468198,-0.002194498,0.0145949,-0.01590719,0.01665657,-0.04603538,-0.006174223,-0.004491015,-0.006058456,-0.000160069,8.245499999999951e-05,-0.000251062,0.2279497,0.05048006,0.03772102
2023-10-24 11:01:17.832999936,0.1467777,-0.001785532,0.01444638,-0.01442715,0.02278073,-0.04756069,-0.005975408,-0.00432567,-0.006312228,0.000198815,0.0001653449999999,-0.0002537719999999,0.227872,0.05041166,0.03760178
2023-10-24 11:01:17.845999872,0.1468248,-0.001526654,0.01432313,-0.006839885,0.02515838,-0.04489246,-0.005963332,-0.004269104,-0.006551745,1.2075999999999754e-05,5.656600000000008e-05,-0.000239517,0.2277876,0.05034521,0.03748787
2023-10-24 11:01:17.860999936,0.146965,-0.001147334,0.01391786,-0.0003683417,0.02683218,-0.04533747,-0.005640579,-0.004006605,-0.006540159,0.000322753,0.000262499,1.1586000000000062e-05,0.2277206,0.05025035,0.03741455
2023-10-24 11:01:17.877000192,0.1469298,-0.0007311329,0.01394379,0.004299629,0.03279851,-0.04679801,-0.005029488,-0.003723698,-0.006156663,0.0006110909999999,0.0002829069999999,0.000383496,0.2276721,0.05018245,0.03735282
2023-10-24 11:01:17.892000000,0.1473201,-0.000338681,0.01403239,0.0120816,0.04054633,-0.03556983,-0.004620669,-0.003553604,-0.005732772,0.000408819,0.0001700939999999,0.000423891,0.2276219,0.05012969,0.03727325
2023-10-24 11:01:17.903000064,0.1473987,-1.109764e-05,0.0144484,0.01574582,0.0526906,-0.01656915,-0.00413598,-0.003101541,-0.005234925,0.0004846889999999,0.0004520629999999,0.000497847,0.2275806,0.05012102,0.03719021
2023-10-24 11:01:17.917999872,0.147362,0.0003917925,0.01479574,0.01674349,0.05568508,0.0003226649,-0.003840931,-0.003382267,-0.004966598,0.0002950489999999,-0.0002807259999999,0.0002683269999999,0.2275366,0.05008264,0.03710058
2023-10-24 11:01:17.932000000,0.1472462,0.0007877871,0.01501107,0.004926119,0.05556484,0.005825561,-0.00343515,-0.003912508,-0.005305515,0.000405781,-0.000530241,-0.000338917,0.2274203,0.04999439,0.03687813
2023-10-24 11:01:17.944999936,0.1470421,0.001159567,0.01534515,-0.006666666,0.05777964,0.007438983,-0.00308365,-0.004496564,-0.005833982,0.0003515,-0.0005840559999999,-0.0005284669999999,0.2273101,0.04990458,0.03664456
2023-10-24 11:01:17.957999872,0.1466154,0.001448479,0.01551575,-0.01512258,0.05750757,0.004217787,-0.002855871,-0.004716095,-0.00651659,0.000227779,-0.000219531,-0.000682608,0.2272459,0.04982974,0.03647152
2023-10-24 11:01:17.972000000,0.1465477,0.001551937,0.01557496,-0.0195064,0.05594489,0.005664149,-0.002372987,-0.004941039,-0.007170924,0.0004828839999999,-0.000224944,-0.000654334,0.2272274,0.04975785,0.03634608
2023-10-24 11:01:17.986000128,0.1462985,0.001822691,0.01574606,-0.02100027,0.0482732,0.00534402,-0.001731339,-0.005324114,-0.007590987,0.000641648,-0.0003830749999999,-0.000420063,0.2272236,0.04968173,0.03621074
2023-10-24 11:01:18.000000000,0.1461821,0.001948997,0.01604115,-0.02454874,0.04457665,0.01170736,-0.001076839,-0.005224818,-0.007829789,0.0006544999999999,9.92959999999996e-05,-0.0002388019999999,0.2272202,0.04964697,0.03609447
2023-10-24 11:01:18.013999872,0.1461147,0.002010275,0.01613453,-0.01856945,0.03774562,0.0123358,-0.0006698396,-0.005078006,-0.008003321,0.0004069994,0.0001468119999999,-0.000173532,0.2272124,0.04960265,0.03598173
2023-10-24 11:01:18.028999936,0.146108,0.002131857,0.01619584,-0.01357013,0.03150677,0.01060195,-0.0002466767,-0.004849571,-0.008014088,0.0004231628999999,0.000228435,-1.0767000000000068e-05,0.2272172,0.04955257,0.03586533
2023-10-24 11:01:18.042000128,0.1463003,0.002403241,0.01608654,-0.006320524,0.02466121,0.002434282,0.0001139362,-0.005056127,-0.008313436,0.0003606129,-0.000206556,-0.0002993479999999,0.2272291,0.04946804,0.03572479
2023-10-24 11:01:18.055000064,0.1459747,0.002366681,0.01633167,-0.008445677,0.02300782,-0.0004583343,0.0001706018,-0.004903692,-0.008907862,5.666559999999999e-05,0.0001524349999999,-0.000594426,0.2271786,0.04943649,0.03555734
2023-10-24 11:01:18.068999936,0.1459458,0.00256978,0.01634216,-0.009467241,0.02231871,-0.003606066,8.796121e-05,-0.004622069,-0.009631133,-8.264059e-05,0.0002816229999999,-0.0007232709999999,0.227056,0.04941157,0.03532992
2023-10-24 11:01:18.083000064,0.1459767,0.002638817,0.0162692,-0.003450073,0.01676505,-0.002184587,-0.0001973159,-0.004349662,-0.01038887,-0.00028527711,0.000272407,-0.0007577369999999,0.2269314,0.0493855,0.03510325
2023-10-24 11:01:18.098000128,0.1460676,0.002832484,0.01610486,0.002083047,0.01471719,-0.0136994,0.0001305105,-0.00408731,-0.01059893,0.0003278264,0.0002623519999999,-0.0002100599999999,0.2269429,0.04932506,0.03493955
2023-10-24 11:01:18.112999936,0.1463725,0.003057942,0.01588096,0.0120104,0.01855377,-0.01779459,0.000344308,-0.003204078,-0.01060537,0.0002137974999999,0.000883232,-6.439999999999918e-06,0.2269524,0.04928993,0.03477805
2023-10-24 11:01:18.127000064,0.1467435,0.003388461,0.01624627,0.02501599,0.02444853,-0.012435,9.8497e-05,-0.00239272,-0.01031191,-0.0002458109999999,0.0008113579999999,0.0002934599999999,0.2269192,0.04931584,0.03466536
2023-10-24 11:01:18.138000128,0.1469166,0.00350434,0.01632482,0.03379433,0.03396037,-0.002532324,5.35346e-05,-0.001837852,-0.009791988,-4.49624e-05,0.000554868,0.000519922,0.2268786,0.04933377,0.03459845
2023-10-24 11:01:18.154000128,0.1470805,0.003913574,0.01650321,0.03060252,0.03439642,-0.001569733,4.836381e-05,-0.001365305,-0.009475095,-5.170790000000001e-06,0.000472547,0.000316893,0.2268528,0.04935279,0.03448974
2023-10-24 11:01:18.168000000,0.147088,0.003993195,0.01656297,0.02522046,0.03573122,0.002403531,0.0001764461,-0.0007169369,-0.009307157,0.00012808229,0.0006483681,0.0001679379999999,0.2268604,0.04936529,0.03436007
2023-10-24 11:01:18.180000000,0.1473549,0.004411988,0.01677443,0.0243078,0.03785282,0.001861471,5.903601e-05,7.58781e-05,-0.009286023,-0.00011741009,0.000792815,2.1134000000000777e-05,0.2268608,0.04939735,0.03420413
2023-10-24 11:01:18.194999808,0.1475358,0.004696414,0.01690728,0.02660067,0.04133014,0.00324528,-6.17929e-05,0.0007089021,-0.009036507,-0.00012082891,0.000633024,0.000249516,0.2267826,0.0494686,0.03397842
2023-10-24 11:01:18.209000192,0.147628,0.004867077,0.01704893,0.02772045,0.04254753,0.004071113,0.0001478881,0.001410162,-0.008590668,0.000209681,0.0007012599,0.0004458389999999,0.2266957,0.04956221,0.03374977
2023-10-24 11:01:18.223000064,0.148159,0.005133342,0.01709399,0.03263754,0.03553314,0.003689002,-6.668008e-06,0.002395799,-0.007996337,-0.000154556108,0.000985637,0.000594331,0.2266433,0.04964574,0.0335804
2023-10-24 11:01:18.237999872,0.1484735,0.005227752,0.01716807,0.04405009,0.0304422,0.004121726,0.0001064392,0.003439335,-0.007207881,0.000113107208,0.0010435359999999,0.0007884559999999,0.226648,0.04972458,0.03349464
2023-10-24 11:01:18.252000000,0.1488755,0.005125143,0.01758326,0.04894974,0.02750616,0.01153896,2.644482e-05,0.004173946,-0.006536569,-7.999438e-05,0.000734611,0.000671312,0.2266493,0.04983367,0.03341834
2023-10-24 11:01:18.265000192,0.1491606,0.005341534,0.01733813,0.04894913,0.02366557,0.004815869,0.0002558887,0.004452801,-0.005876471,0.0002294438799999,0.0002788549999999,0.0006600979999999,0.2266714,0.04990855,0.03330216
2023-10-24 11:01:18.280000000,0.1492929,0.005415589,0.01751427,0.04317053,0.0164928,0.005409045,0.0002515983,0.0035876,-0.005473108,-4.290399999999975e-06,-0.000865201,0.000403363,0.2266862,0.04996467,0.03319092
2023-10-24 11:01:18.292999936,0.1494544,0.005290255,0.01749921,0.03321877,0.008810295,0.002693907,0.0001722235,0.002292576,-0.00516978,-7.93748e-05,-0.0012950239999999,0.000303328,0.2266892,0.0499654,0.03312701
2023-10-24 11:01:18.306999808,0.1494653,0.005314011,0.01738904,0.02140595,0.005652359,-9.343156e-05,0.0002720743,0.001563182,-0.004757949,9.985080000000002e-05,-0.000729394,0.0004118309999999,0.2266954,0.04995896,0.03307181
2023-10-24 11:01:18.319000064,0.1495996,0.005351335,0.01734807,0.02205082,-0.0008554624,0.0004950808,-7.785036e-05,0.001306102,-0.004347297,-0.00034992466,-0.00025708,0.000410652,0.2266581,0.04997249,0.03299435
2023-10-24 11:01:18.334000128,0.1499026,0.005199105,0.01714646,0.02818386,-0.007709219,-0.00311125,-0.0007239638,0.001964736,-0.004077747,-0.00064611344,0.000658634,0.00026955,0.2265149,0.05003971,0.03284108
2023-10-24 11:01:18.348000000,0.1502245,0.005257204,0.01688677,0.03158288,-0.0118591,-0.01407319,-0.001303265,0.002578034,-0.003922598,-0.0005793012,0.000613298,0.0001551489999999,0.2263638,0.05010885,0.03267037
2023-10-24 11:01:18.361999872,0.150383,0.005124692,0.01647805,0.03176356,-0.01554796,-0.02415762,-0.001925417,0.002731193,-0.003649623,-0.000622152,0.0001531589999999,0.000272975,0.2263038,0.05013073,0.03262437
2023-10-24 11:01:18.375000064,0.1505406,0.005270999,0.01627335,0.03104739,-0.01189971,-0.02731445,-0.002216697,0.002611623,-0.00367737,-0.00029128,-0.0001195699999999,-2.7747000000000275e-05,0.226264,0.05015058,0.03256591
2023-10-24 11:01:18.390000128,0.1504375,0.005456511,0.01608134,0.02274469,-0.01142815,-0.03203236,-0.00239848,0.002291467,-0.003817153,-0.000181783,-0.0003201559999999,-0.000139783,0.2262355,0.05017816,0.03248479
2023-10-24 11:01:18.404000000,0.1503567,0.005374853,0.01593184,0.01109284,-0.00762447,-0.0289066,-0.002496024,0.001669671,-0.004218517,-9.754399999999976e-05,-0.000621796,-0.0004013639999999,0.2262166,0.05020149,0.03239691
2023-10-24 11:01:18.416000000,0.1505995,0.005522005,0.01594284,0.00994505,-0.003102754,-0.02017863,-0.002459491,0.0009385858,-0.004357814,3.653300000000005e-05,-0.0007310852,-0.000139297,0.2261986,0.05021358,0.032302
2023-10-24 11:01:18.431000064,0.1505136,0.00549968,0.01584058,0.007582539,-0.003953027,-0.01560077,-0.002436013,0.001023278,-0.004395877,2.347799999999996e-05,8.46922000000001e-05,-3.8063000000000506e-05,0.2261651,0.0502245,0.03224239
2023-10-24 11:01:18.444999936,0.1507025,0.005492382,0.01570136,0.01174676,-0.006790743,-0.01696064,-0.002024957,0.001001072,-0.004225133,0.0004110559999999,-2.220600000000009e-05,0.000170744,0.2261488,0.05022854,0.0321895
2023-10-24 11:01:18.459000064,0.150748,0.005406104,0.01538268,0.01276166,-0.008134985,-0.017696,-0.001896993,0.001516427,-0.003935853,0.0001279639999999,0.000515355,0.00028928,0.2260377,0.05029869,0.03212664
2023-10-24 11:01:18.472000000,0.150943,0.005467746,0.01531813,0.01582215,-0.01037064,-0.01702576,-0.002117539,0.00158753,-0.003751335,-0.0002205459999999,7.110299999999988e-05,0.0001845179999999,0.225869,0.05039813,0.03203879
2023-10-24 11:01:18.486000128,0.1509455,0.005294252,0.01512377,0.01568585,-0.01241904,-0.01650139,-0.002091355,0.001426669,-0.003384156,2.6183999999999843e-05,-0.000160861,0.000367179,0.2257558,0.05045404,0.03199117
2023-10-24 11:01:18.500000000,0.1511285,0.005260248,0.01490611,0.01767403,-0.01615861,-0.01767258,-0.001591323,0.001263229,-0.002751906,0.000500032,-0.0001634399999999,0.00063225,0.2257465,0.05045443,0.03197458
2023-10-24 11:01:18.516000000,0.1511671,0.005136937,0.01478237,0.01192283,-0.02150465,-0.01418202,-0.001288432,0.00121146,-0.002448096,0.000302891,-5.176900000000012e-05,0.00030381,0.2257372,0.05046358,0.03195488
2023-10-24 11:01:18.528999936,0.15117,0.004972946,0.01451186,0.007532121,-0.02648428,-0.01739303,-0.0009738088,0.0003348528,-0.001883864,0.0003146231999999,-0.0008766071999999,0.0005642319999999,0.2257444,0.05041828,0.03189334
2023-10-24 11:01:18.543000064,0.1510844,0.004861917,0.01450341,-7.665016e-05,-0.02761551,-0.0150664,-0.0005056986,-0.0002617804,-0.001460004,0.0004681101999999,-0.0005966332,0.00042386,0.225762,0.05038998,0.03183242
2023-10-24 11:01:18.558000128,0.1509549,0.004627779,0.01435015,-0.005788167,-0.02955334,-0.006961787,-0.0001869681,-0.0004135491,-0.0009895056,0.0003187305,-0.0001517687,0.0004704983999999,0.22577,0.05036954,0.03182828
2023-10-24 11:01:18.569999872,0.1511691,0.004342929,0.01400649,0.0006319208,-0.03568875,-0.01622677,0.0003259933,-0.0003268769,-0.0002652468,0.0005129614,8.66722e-05,0.0007242588,0.2257868,0.05034886,0.03186475
2023-10-24 11:01:18.584000000,0.1511794,0.004219558,0.01384011,0.002706482,-0.03866698,-0.01871259,0.0004801907,-8.638258e-05,0.0007190349,0.0001541974,0.00024049432,0.0009842817,0.2257982,0.05034428,0.03191171
2023-10-24 11:01:18.598000128,0.1514176,0.004076455,0.01363485,0.007109109,-0.03368042,-0.01550691,0.0005201501,0.0003754106,0.001850978,3.9959399999999975e-05,0.00046179318,0.0011319431,0.225713,0.05037431,0.03194115
2023-10-24 11:01:18.612000000,0.1514042,0.003974333,0.01387006,0.014391,-0.03056302,-0.006260969,0.0006435716,0.0007787501,0.002906901,0.0001234215,0.0004033394999999,0.0010559229999999,0.2256207,0.0504407,0.03197262
2023-10-24 11:01:18.625999872,0.1514093,0.003583733,0.01377291,0.01300659,-0.02956086,0.005576579,0.00090306,0.0004222653,0.003843299,0.0002594884,-0.0003564847999999,0.000936398,0.2255839,0.05045056,0.03205497
2023-10-24 11:01:18.640999936,0.1510672,0.003530476,0.01359652,-0.006029416,-0.02760119,0.004696983,0.001548955,-0.00015867,0.004673003,0.000645895,-0.0005809353,0.000829704,0.2256226,0.05042318,0.03214905
2023-10-24 11:01:18.655000064,0.1507321,0.003378857,0.0134624,-0.02069095,-0.02618413,-0.001457562,0.002010807,-0.0006551336,0.005281534,0.0004618519999999,-0.0004964636,0.0006085309999999,0.2256311,0.0503971,0.03222966
2023-10-24 11:01:18.668000000,0.1503164,0.003109187,0.01343024,-0.03021344,-0.02441521,-0.0009792895,0.002166178,-0.001251627,0.00570656,0.000155371,-0.0005964933999999,0.000425026,0.2255963,0.0503696,0.03229129
2023-10-24 11:01:18.681999872,0.1500259,0.002868462,0.0133833,-0.04002957,-0.02752949,0.00189502,0.002152752,-0.001969163,0.005928402,-1.3425999999999976e-05,-0.000717536,0.0002218419999999,0.2255624,0.05032782,0.03235208
2023-10-24 11:01:18.696000000,0.1497367,0.00265139,0.01342367,-0.04536108,-0.02489339,0.006658858,0.002666783,-0.002447331,0.006345995,0.0005140309999999,-0.000478168,0.0004175929999999,0.2256148,0.05028459,0.03246611
2023-10-24 11:01:18.710000128,0.1496576,0.002503421,0.01348853,-0.03692966,-0.02632815,0.00715157,0.002702967,-0.002505329,0.00662696,3.61840000000003e-05,-5.799800000000008e-05,0.000280965,0.2256537,0.0502523,0.03257512
2023-10-24 11:01:18.723000064,0.149684,0.002521895,0.01347021,-0.02390908,-0.0215473,0.007186089,0.002703043,-0.00153585,0.006954369,7.59999999998956e-08,0.000969479,0.0003274089999999,0.2256576,0.05027182,0.03263891
2023-10-24 11:01:18.736999936,0.1499242,0.002441656,0.01341684,-0.007721937,-0.01874381,0.004486454,0.002456075,-0.000641524,0.007078915,-0.000246968,0.000894326,0.0001245459999999,0.2256164,0.05031487,0.03266463
2023-10-24 11:01:18.752000000,0.149978,0.002483413,0.01346484,0.00345036,-0.008702273,0.003134709,0.002621947,4.981242e-05,0.007131559,0.000165872,0.00069133642,5.264400000000013e-05,0.2255974,0.05036301,0.03269085
2023-10-24 11:01:18.765000192,0.1500851,0.002514061,0.01338499,0.00691818,-0.005808598,-0.001978567,0.002583296,9.329998e-05,0.007198378,-3.865099999999979e-05,4.348756e-05,6.681900000000008e-05,0.2256301,0.05035949,0.0327906
2023-10-24 11:01:18.779000064,0.1499979,0.002513643,0.0135533,0.0005887276,-0.0002624406,0.005350281,0.00254273,-0.0003047546,0.007028978,-4.0566000000000126e-05,-0.00039805458,-0.0001694,0.2257549,0.05032273,0.03289585
2023-10-24 11:01:18.792000000,0.149922,0.002580773,0.0136345,-0.002382016,0.004281515,0.005240234,0.002852001,-0.0009245825,0.007189104,0.0003092709999999,-0.0006198279,0.000160126,0.2259542,0.05024495,0.03301638
2023-10-24 11:01:18.806999808,0.1497747,0.002674609,0.01359015,-0.008514532,0.006352352,-0.0008870585,0.003076245,-0.001282581,0.007365546,0.000224244,-0.0003579985,0.0001764419999999,0.2261219,0.05017147,0.03313675
2023-10-24 11:01:18.821000192,0.1495949,0.002807017,0.01345501,-0.01461837,0.007890611,-0.009083109,0.002878736,-0.001283283,0.007383119,-0.000197509,-7.019999999999943e-07,1.7572999999999894e-05,0.2261552,0.05014258,0.03323217
2023-10-24 11:01:18.834000128,0.1494043,0.002938934,0.01347469,-0.01668116,0.009030735,-0.009405434,0.002212544,-0.001236648,0.007445303,-0.0006661919999999,4.6635000000000166e-05,6.218400000000072e-05,0.2261683,0.05012599,0.03333036
2023-10-24 11:01:18.848000000,0.1494287,0.003151141,0.01365967,-0.01108123,0.01811211,-0.002858678,0.001839778,-0.001042127,0.00744926,-0.0003727659999999,0.000194521,3.9569999999997454e-06,0.2260533,0.05015152,0.03334887
2023-10-24 11:01:18.861999872,0.1494523,0.003196396,0.01362486,-0.007025139,0.01507457,-0.0009185695,0.00143743,-0.0002210366,0.007272496,-0.000402348,0.0008210903999999,-0.000176764,0.2258938,0.05020256,0.03335369
2023-10-24 11:01:18.876000000,0.1495145,0.003301296,0.01343931,-0.001691914,0.01036162,-0.009551606,0.00150214,0.0005776684,0.007143177,6.470999999999994e-05,0.0007987049999999,-0.000129319,0.2258137,0.05024224,0.03339067
2023-10-24 11:01:18.890000128,0.1495458,0.003409289,0.0134518,0.0004577468,0.01181884,-0.007688748,0.001593204,0.0007474264,0.007210338,9.106400000000008e-05,0.000169758,6.716100000000048e-05,0.2258389,0.0502586,0.03348622
2023-10-24 11:01:18.904000000,0.1494743,0.003472507,0.01342268,-0.002841664,0.009913947,-0.007250592,0.001582389,0.0004583749,0.007241398,-1.0814999999999957e-05,-0.0002890515,3.105999999999942e-05,0.2258608,0.05025531,0.03358407
2023-10-24 11:01:18.916999936,0.1493493,0.00347453,0.01341368,-0.007341402,0.006267322,-0.00526988,0.002106167,0.000192377,0.007514917,0.0005237779999999,-0.0002659979,0.000273519,0.2259727,0.05030239,0.03370037
2023-10-24 11:01:18.931000064,0.1492683,0.003451589,0.01346603,-0.008623871,0.004023639,-0.001408183,0.002798043,-0.0001083012,0.007910563,0.000691876,-0.0003006782,0.000395646,0.2261059,0.05035337,0.03382623
2023-10-24 11:01:18.943000064,0.1492263,0.003419042,0.01362224,-0.007736712,0.004796424,0.006124496,0.00320004,-0.0003093048,0.008333639,0.0004019969999999,-0.0002010036,0.0004230759999999,0.226193,0.05037847,0.03395566
2023-10-24 11:01:18.959000064,0.1492001,0.003355697,0.01368219,-0.006862207,0.001917996,0.007977881,0.00335367,-0.0002903666,0.008783254,0.00015363,1.8938199999999988e-05,0.000449615,0.2262439,0.05037864,0.03409383
2023-10-24 11:01:18.972999936,0.1491848,0.003336262,0.01378031,-0.005833052,0.002390519,0.01007843,0.003727307,-0.0003809448,0.009248146,0.000373637,-9.057819999999996e-05,0.0004648919999999,0.2262793,0.05037688,0.03420754
2023-10-24 11:01:18.987000064,0.1491677,0.003201853,0.01384984,-0.005074104,-0.0025501,0.01245617,0.003569501,-0.0007558588,0.009539311,-0.0001578059999999,-0.000374914,0.0002911649999999,0.226248,0.05036413,0.03427769
2023-10-24 11:01:19.000999936,0.1489289,0.003172457,0.013955,-0.01458928,-0.0007825549,0.01295605,0.003724962,-0.001254035,0.009947644,0.0001554609999999,-0.0004981761999999,0.000408333,0.2262271,0.0503431,0.03435003
2023-10-24 11:01:19.015000064,0.1484822,0.003104839,0.01405839,-0.02417185,-0.001864647,0.01087601,0.003715037,-0.002032886,0.01024665,-9.925000000000038e-06,-0.0007788509999999,0.0002990059999999,0.2262791,0.05029959,0.03450596
2023-10-24 11:01:19.028999936,0.1482448,0.003074266,0.01396648,-0.03149527,-0.00125415,0.007307383,0.003522826,-0.002757238,0.01058363,-0.0001922109999999,-0.000724352,0.00033698,0.2263225,0.0502347,0.03466569
2023-10-24 11:01:19.042000128,0.1477486,0.00298734,0.0141146,-0.04329387,-0.00271126,0.007496965,0.002938097,-0.00322657,0.01059372,-0.000584729,-0.0004693319999999,1.0089999999999058e-05,0.2263475,0.05018453,0.03481958
2023-10-24 11:01:19.056000000,0.1474925,0.00297676,0.01397902,-0.0430727,-0.0004156978,0.003622015,0.002625124,-0.003381325,0.01094058,-0.000312973,-0.000154755,0.00034686,0.2263364,0.05011748,0.03496517
2023-10-24 11:01:19.069999872,0.1472853,0.003040589,0.0138897,-0.04411909,-0.000639221,0.002549189,0.002243273,-0.003159989,0.01093059,-0.0003818509999999,0.0002213359999999,-9.989999999999652e-06,0.2262699,0.05005949,0.03507191
2023-10-24 11:01:19.084000000,0.1469476,0.002925742,0.01394795,-0.04215582,-0.004089511,0.002342755,0.001721858,-0.002904864,0.0107831,-0.000521415,0.000255125,-0.00014749,0.2261995,0.05001804,0.03518597
2023-10-24 11:01:19.098000128,0.1468329,0.002891615,0.01399357,-0.03801198,-0.006619597,0.001926773,0.001417979,-0.002771562,0.01070139,-0.0003038789999999,0.000133302,-8.171000000000046e-05,0.2262104,0.04998663,0.03533357
2023-10-24 11:01:19.112999936,0.146464,0.002824865,0.01391788,-0.03702177,-0.007466033,0.003244684,0.0008945607,-0.002331596,0.01028497,-0.0005234183,0.0004399659999999,-0.00041642,0.2262085,0.0499633,0.03547051
2023-10-24 11:01:19.125999872,0.1465873,0.002719715,0.0137401,-0.02723523,-0.007679039,-0.004246202,0.0001474596,-0.001283922,0.009929904,-0.0007471011,0.001047674,-0.0003550659999999,0.2260946,0.04996367,0.03553287
2023-10-24 11:01:19.140999936,0.1464829,0.002836082,0.0136359,-0.02180272,-0.007934423,-0.008517378,-0.0007030768,-0.0001633387,0.009123732,-0.0008505364,0.0011205833,-0.0008061719999999,0.2259199,0.04998291,0.03552136
2023-10-24 11:01:19.153000192,0.1465121,0.002843995,0.01352262,-0.01092278,-0.004842649,-0.01131289,-0.001403155,7.38806e-05,0.008668638,-0.0007000781999999,0.0002372193,-0.000455094,0.2257915,0.04998251,0.03556105
2023-10-24 11:01:19.167000064,0.1464545,0.002889529,0.01335408,-0.009740659,-0.004876302,-0.01568533,-0.00241882,0.0001743536,0.008121863,-0.001015665,0.0001004729999999,-0.0005467749999999,0.225729,0.04997818,0.03565732
2023-10-24 11:01:19.180999936,0.1464265,0.003090654,0.01320716,-0.009274085,0.001342566,-0.02159538,-0.00321447,0.0001089428,0.007969861,-0.00079565,-6.541079999999999e-05,-0.000152002,0.2256604,0.04996758,0.03575274
2023-10-24 11:01:19.196000000,0.1463947,0.003451802,0.01288337,-0.005741403,0.00355772,-0.02977521,-0.004479262,0.0002180441,0.007793068,-0.001264792,0.0001091013,-0.0001767929999999,0.2255442,0.04995137,0.03583906
2023-10-24 11:01:19.210000128,0.1464844,0.003780201,0.01273427,0.00130396,0.0138627,-0.03546946,-0.005019655,0.0003381446,0.008009027,-0.0005403929999999,0.0001201005,0.0002159589999999,0.225437,0.04994871,0.03594003
2023-10-24 11:01:19.223000064,0.1465694,0.003896654,0.01269771,0.004621721,0.01731346,-0.03406017,-0.005800788,0.0007646218,0.007970552,-0.000781133,0.0004264772,-3.847499999999962e-05,0.2253201,0.04996908,0.03604394
2023-10-24 11:01:19.236999936,0.1468167,0.004244987,0.01256804,0.01217612,0.02081576,-0.03149226,-0.006164425,0.0009996295,0.007957316,-0.000363637,0.0002350077,-1.3235999999999803e-05,0.2252246,0.0499787,0.03613256
2023-10-24 11:01:19.252000000,0.1467809,0.004483946,0.01236254,0.015578,0.02303058,-0.035251,-0.006178912,0.001584906,0.008100559,-1.448699999999966e-05,0.0005852765,0.0001432429999999,0.22514,0.04999912,0.03623535
2023-10-24 11:01:19.266000128,0.1469606,0.004793867,0.01213382,0.01875195,0.02468731,-0.03229424,-0.006200096,0.002157949,0.008100882,-2.118400000000048e-05,0.000573043,3.2299999999999e-07,0.2249773,0.05002205,0.03627492
2023-10-24 11:01:19.279000064,0.1471732,0.005065478,0.01208238,0.01998652,0.0292677,-0.03120568,-0.006050469,0.003037588,0.008303643,0.000149627,0.0008796389999999,0.0002027609999999,0.2248308,0.05007302,0.03632743
2023-10-24 11:01:19.293999872,0.1474182,0.005156487,0.01248444,0.02494126,0.03025299,-0.0170616,-0.005941451,0.003417375,0.008810228,0.0001090179999999,0.0003797869999999,0.000506585,0.2247304,0.05015085,0.03643796
2023-10-24 11:01:19.306999808,0.1475514,0.005190331,0.01269731,0.0221598,0.02798164,-7.323976e-05,-0.005745841,0.003750746,0.009223117,0.00019561,0.000333371,0.0004128889999999,0.2246563,0.05022389,0.03657284
2023-10-24 11:01:19.319000064,0.1475088,0.005143765,0.01268336,0.01975707,0.02136909,-0.000682999,-0.005113067,0.003772101,0.009951013,0.000632774,2.135499999999981e-05,0.000727896,0.2245932,0.05026887,0.03674218
2023-10-24 11:01:19.334000128,0.1475672,0.005349334,0.01258523,0.01204396,0.01344252,-0.003290415,-0.004800929,0.003819873,0.01047943,0.000312138,4.777200000000018e-05,0.0005284169999999,0.2244922,0.0502864,0.03692152
2023-10-24 11:01:19.346999808,0.1475848,0.005299412,0.01239089,0.00964367,0.002186912,-0.009356705,-0.004891804,0.003739914,0.01092352,-9.08749999999998e-05,-7.99590000000001e-05,0.00044409,0.2243784,0.05029708,0.03712251
2023-10-24 11:01:19.361999872,0.1475597,0.005295023,0.01219567,0.005337446,-0.003303314,-0.01469749,-0.004383469,0.003229614,0.01102806,0.0005083349999999,-0.0005103,0.0001045399999999,0.2243261,0.05031178,0.03728489
2023-10-24 11:01:19.377000192,0.1475497,0.005178683,0.01199776,0.002927832,-0.01121329,-0.01609261,-0.003832766,0.002373213,0.01094193,0.000550703,-0.000856401,-8.61299999999985e-05,0.2242867,0.0503096,0.03744294
2023-10-24 11:01:19.391000064,0.1475684,0.004957467,0.01174363,-0.0005608099,-0.02037581,-0.01829776,-0.003610205,0.001657429,0.01076535,0.000222561,-0.0007157839999999,-0.00017658,0.2241864,0.05028205,0.03756008
2023-10-24 11:01:19.404000000,0.1473995,0.004894014,0.01162577,-0.001813899,-0.0229067,-0.01550927,-0.003419567,0.0005568101,0.01034384,0.0001906379999999,-0.0011006189,-0.0004215099999999,0.2240408,0.05021858,0.0376158
2023-10-24 11:01:19.418999808,0.1473054,0.004862871,0.01157179,-0.00589092,-0.01834388,-0.01563427,-0.003107739,-0.0005808438,0.009930556,0.000311828,-0.0011376539,-0.0004132839999999,0.2239273,0.05015115,0.0376824
2023-10-24 11:01:19.433000192,0.1471024,0.004775502,0.0113141,-0.0111956,-0.01812979,-0.0158114,-0.003067288,-0.001613647,0.009588144,4.045099999999994e-05,-0.0010328032,-0.000342412,0.2238856,0.05008422,0.03781503
2023-10-24 11:01:19.446000128,0.1473313,0.004923187,0.01121443,-0.009905717,-0.01276958,-0.01600184,-0.002747528,-0.002132292,0.009260872,0.00031976,-0.000518645,-0.000327272,0.2238569,0.05003097,0.03792566
2023-10-24 11:01:19.459000064,0.1472874,0.004838776,0.01117793,-0.004515113,-0.01090128,-0.01633753,-0.002583575,-0.00193585,0.008992802,0.000163953,0.000196442,-0.00026807,0.2238293,0.05001412,0.03807124
2023-10-24 11:01:19.473999872,0.1473301,0.004826143,0.01120758,0.002855122,-0.005783116,-0.007541652,-0.002522543,-0.001450763,0.008519642,6.1031999999999927e-05,0.0004850869999999,-0.00047316,0.2238003,0.05001899,0.03820396
2023-10-24 11:01:19.489000192,0.1473557,0.004826486,0.01121627,0.002833655,-0.003981759,-0.004687396,-0.00202535,-0.001006891,0.008253961,0.0004971929999999,0.000443872,-0.0002656809999999,0.2237881,0.05002225,0.03832575
2023-10-24 11:01:19.502000128,0.1473392,0.004781581,0.01109453,0.0006840046,-0.006734649,-0.007353551,-0.001749165,-0.0005070695,0.007605442,0.0002761849999999,0.0004998215,-0.000648519,0.2237699,0.05002088,0.03841712
2023-10-24 11:01:19.516000000,0.1473856,0.004728362,0.01106786,0.002716284,-0.007336687,-0.004960306,-0.001700617,-0.0001726064,0.006928112,4.854800000000004e-05,0.0003344631,-0.0006773299999999,0.2237475,0.05002628,0.03849854
2023-10-24 11:01:19.529999872,0.1473795,0.004690446,0.01127149,0.0014984,-0.002411972,0.005894998,-0.001379807,0.0001681306,0.006124194,0.0003208099999999,0.000340737,-0.0008039179999999,0.2237059,0.05009177,0.03856722
2023-10-24 11:01:19.544000000,0.1473057,0.004548203,0.01132903,-0.002981864,-0.005867957,0.008854525,-0.00101885,0.0003384842,0.005362132,0.000360957,0.0001703536,-0.000762062,0.2236689,0.05014494,0.03863348
2023-10-24 11:01:19.558000128,0.1472515,0.004324537,0.01126332,-0.004351788,-0.01486136,0.007749506,-0.0009981846,0.0005190397,0.004416419,2.066539999999993e-05,0.0001805555,-0.0009457129999999,0.2236432,0.05017196,0.03868532
2023-10-24 11:01:19.572000000,0.1473057,0.00423079,0.01126433,-5.418326e-05,-0.01399309,0.007623287,-0.0008773196,0.0009842836,0.003812717,0.000120865,0.0004652439,-0.000603702,0.2236347,0.0501996,0.03872775
2023-10-24 11:01:19.584000000,0.1474691,0.004152454,0.01111095,0.007531878,-0.01607421,0.0005930066,-0.0009087725,0.001752579,0.003306559,-3.1452900000000046e-05,0.0007682953999999,-0.000506158,0.2236208,0.05023551,0.0387656
2023-10-24 11:01:19.599000064,0.1478835,0.004151043,0.0108556,0.02240361,-0.01817564,-0.000775111,-0.000868521,0.002160921,0.003030683,4.02515e-05,0.000408342,-0.000275876,0.2236224,0.05027587,0.03883219
2023-10-24 11:01:19.612000000,0.1482971,0.003932495,0.01083615,0.02980163,-0.0213086,-0.003148455,-0.0007664076,0.003168627,0.002983532,0.0001021134,0.0010077059999999,-4.715100000000005e-05,0.2236279,0.05036665,0.03891446
2023-10-24 11:01:19.627000064,0.1484328,0.003774788,0.01079725,0.03511982,-0.02332765,-0.005859634,-0.0005967792,0.003811076,0.003022082,0.0001696283999999,0.000642449,3.855000000000004e-05,0.2236306,0.05044346,0.03898014
2023-10-24 11:01:19.640000000,0.1488392,0.003580671,0.01081726,0.04137912,-0.02201736,0.000527253,-0.0005368326,0.003693038,0.003178924,5.994660000000005e-05,-0.000118038,0.0001568419999999,0.2236253,0.05049456,0.03904038
2023-10-24 11:01:19.654000128,0.1490596,0.003586106,0.01080166,0.03717276,-0.01900164,0.003011205,-0.0001852216,0.003556504,0.003492449,0.000351611,-0.000136534,0.0003135249999999,0.2236194,0.05054122,0.03909766
2023-10-24 11:01:19.668999936,0.1492331,0.003427789,0.01075551,0.03300298,-0.01833513,0.0005596905,0.0001877849,0.002803181,0.003879793,0.0003730065,-0.0007533229999999,0.0003873439999999,0.2235942,0.05056163,0.03917371
2023-10-24 11:01:19.680999936,0.1492056,0.003182363,0.01068187,0.02745036,-0.02302402,0.002740248,0.0002414836,0.001957431,0.004505388,5.36987e-05,-0.00084575,0.000625595,0.223564,0.05056433,0.03927055
2023-10-24 11:01:19.696000000,0.1491312,0.003023308,0.01055217,0.01987294,-0.02556522,0.004356283,0.0002729974,0.0008799001,0.004925528,3.15138e-05,-0.0010775309,0.00042014,0.2235659,0.05054238,0.03936276
2023-10-24 11:01:19.710000128,0.1492081,0.002830885,0.01047586,0.01351675,-0.02558561,0.003166504,0.0002917058,0.0003470484,0.005817024,1.870840000000001e-05,-0.0005328517,0.0008914959999999,0.2235717,0.05053037,0.03948106
2023-10-24 11:01:19.724999936,0.1492158,0.00280894,0.01030507,0.007338025,-0.025122,-0.004746978,0.0003628499,0.0003591995,0.006372875,7.114409999999996e-05,1.2151099999999993e-05,0.000555851,0.2235666,0.05052602,0.03958881
2023-10-24 11:01:19.737999872,0.1493524,0.002609022,0.01021888,0.005137382,-0.02737175,-0.005294195,0.0002706663,0.0002308896,0.006909942,-9.218359999999996e-05,-0.0001283099,0.0005370669999999,0.2235442,0.05052442,0.03971539
2023-10-24 11:01:19.750999808,0.1490859,0.002550296,0.00997311,0.00114455,-0.02257731,-0.008796435,0.000432461,-1.990891e-05,0.00722769,0.0001617946999999,-0.00025079851,0.000317748,0.2235326,0.05050613,0.03983366
2023-10-24 11:01:19.765000192,0.1491476,0.002480648,0.009884295,-0.001957307,-0.02040177,-0.009382937,0.000345288,-0.0003628867,0.007524227,-8.717299999999996e-05,-0.00034297779,0.0002965369999999,0.2235332,0.05048779,0.03995029
2023-10-24 11:01:19.780000000,0.1492114,0.002417199,0.009812496,-0.005168698,-0.01976262,-0.00737426,0.0002223665,-0.0004559937,0.0077214,-0.0001229215,-9.3107e-05,0.000197173,0.2235334,0.05047525,0.04006742
2023-10-24 11:01:19.793999872,0.1490967,0.00239208,0.009773682,-0.00386584,-0.01334981,-0.007902894,0.0001993947,-0.0005833008,0.007869997,-2.29718e-05,-0.0001273070999999,0.000148597,0.2234862,0.0504468,0.04013427
2023-10-24 11:01:19.806999808,0.1490554,0.002407461,0.009782057,-0.004810663,-0.008131704,-0.004837006,-9.483274e-05,-0.0003378493,0.008128782,-0.00029422744,0.0002454515,0.0002587849999999,0.223406,0.05042805,0.04018388
2023-10-24 11:01:19.822000128,0.1490791,0.00255169,0.009715094,-0.00232515,-0.0004844037,-0.008959159,-5.905589e-05,5.65254e-05,0.008432945,3.577685e-05,0.0003943747,0.000304163,0.2233554,0.05041843,0.040251
2023-10-24 11:01:19.834000128,0.1491697,0.002547685,0.009795701,0.002912773,0.0009065003,-0.002640452,-0.0003013828,0.0001743226,0.008428105,-0.00024232691,0.0001177971999999,-4.8400000000007465e-06,0.2233448,0.0504286,0.0403672
2023-10-24 11:01:19.849999872,0.1492336,0.002604444,0.00988074,0.00507114,0.003947494,0.001017723,-5.316013e-05,0.0005333524,0.008506089,0.00024822267,0.0003590298,7.798399999999969e-05,0.2233531,0.0504508,0.04048344
2023-10-24 11:01:19.864000000,0.1493139,0.002635002,0.009974331,0.007192257,0.005698066,0.003906016,0.0003657236,0.0006068317,0.00853736,0.00041888373,7.347929999999999e-05,3.127100000000112e-05,0.2233671,0.0504981,0.0406354
2023-10-24 11:01:19.878000128,0.1493739,0.002584439,0.01005322,0.008103956,0.003093637,0.00678504,0.0007496731,0.0007920871,0.008567482,0.0003839495,0.0001852553999999,3.0121999999998747e-05,0.2233846,0.05055096,0.04079276
2023-10-24 11:01:19.891000064,0.1494669,0.002464641,0.0101073,0.01000657,-0.001874794,0.009178201,0.0009306874,0.0008855268,0.008370938,0.0001810142999999,9.343970000000007e-05,-0.0001965439999999,0.2233998,0.05058352,0.04092348
2023-10-24 11:01:19.904000000,0.1494896,0.002359208,0.01011024,0.005545086,-0.006874227,0.01040398,0.001245253,0.0008261728,0.00822698,0.0003145656,-5.935400000000007e-05,-0.0001439579999999,0.2234286,0.05059176,0.04104265
2023-10-24 11:01:19.920000000,0.149508,0.002106272,0.01019794,0.006331716,-0.01256875,0.01406804,0.001211717,0.0003317989,0.008012785,-3.3536000000000026e-05,-0.0004943739,-0.000214195,0.2234363,0.05059119,0.04113903
2023-10-24 11:01:19.932000000,0.1494462,0.001938157,0.01014168,0.0009398822,-0.01652506,0.01061232,0.001230411,0.0003690797,0.007937197,1.869400000000009e-05,3.72808e-05,-7.55879999999997e-05,0.2234357,0.05058345,0.0411785
2023-10-24 11:01:19.947000064,0.1495058,0.001718704,0.009915647,0.005135165,-0.02345399,0.001406797,0.001057711,0.0002588968,0.007981932,-0.0001727,-0.0001101828999999,4.473500000000061e-05,0.2234273,0.05055927,0.04122844
2023-10-24 11:01:19.960999936,0.1495946,0.001796719,0.009795645,0.008424757,-0.02386331,-0.003959717,0.0007928101,0.0006489861,0.008447544,-0.0002649009,0.0003900893,0.0004656119999999,0.2234296,0.05056881,0.04134403
2023-10-24 11:01:19.974999808,0.1498209,0.001513977,0.009799445,0.01262993,-0.02296051,0.0002610107,0.0006103712,0.0009442641,0.008858107,-0.0001824388999999,0.000295278,0.000410563,0.223433,0.05059348,0.04149534
2023-10-24 11:01:19.988000000,0.1498464,0.001417875,0.0099092,0.01150925,-0.01896191,0.01134707,0.0006023415,0.0008180584,0.009242442,-8.029700000000022e-06,-0.0001262057,0.0003843349999999,0.2234382,0.05061049,0.04163853
2023-10-24 11:01:20.000999936,0.1497447,0.001137882,0.01032032,0.001885735,-0.01465637,0.02228254,0.0005340342,0.0004416978,0.009576501,-6.830729999999998e-05,-0.0003763606,0.0003340589999999,0.2234076,0.05064496,0.0417857
2023-10-24 11:01:20.015000064,0.1495982,0.001045514,0.01011303,-0.004392476,-0.01471938,0.01673704,9.843282e-05,4.672877e-05,0.009751586,-0.00043560138,-0.00039496903,0.000175085,0.2233605,0.05063379,0.04192604
2023-10-24 11:01:20.029999872,0.1494133,0.001028817,0.01008134,-0.0126811,-0.01186985,0.009332973,-0.0005198982,0.0001984786,0.00988865,-0.00061833102,0.00015174983,0.000137064,0.2233257,0.0506435,0.04206591
2023-10-24 11:01:20.044000000,0.1492631,0.001073834,0.01012523,-0.01557034,-0.004533289,0.007431515,-0.0007294913,7.365608e-05,0.009883046,-0.0002095930999999,-0.00012482252,-5.6040000000010665e-06,0.2233092,0.05064455,0.0422004
2023-10-24 11:01:20.058000128,0.149073,0.0009716228,0.01015029,-0.0178585,-0.008843889,0.007409553,-0.001375183,-0.0002845834,0.009491717,-0.0006456917,-0.00035823948,-0.0003913289999999,0.2232451,0.05066004,0.04231602
2023-10-24 11:01:20.072999936,0.1488094,0.0008024313,0.01003463,-0.02208532,-0.0094789,0.004245968,-0.001474142,-0.0006466666,0.009013792,-9.89589999999998e-05,-0.0003620832,-0.000477925,0.2231833,0.05067449,0.04242293
2023-10-24 11:01:20.084000000,0.1487538,0.0006901063,0.01004581,-0.02218091,-0.01101571,0.006844301,-0.00188289,-0.0006933169,0.008683268,-0.000408748,-4.665029999999996e-05,-0.000330524,0.2231208,0.05068851,0.04253061
2023-10-24 11:01:20.099000064,0.1487803,0.0007093884,0.01007657,-0.01354707,-0.00850971,0.005148473,-0.002124146,-0.0006513131,0.008453462,-0.000241256,4.200380000000004e-05,-0.0002298059999999,0.2230846,0.05068102,0.04263932
2023-10-24 11:01:20.112999936,0.1488702,0.0006557852,0.01006535,-0.004996843,-0.008068306,0.003979706,-0.002600757,-0.0003147645,0.008044849,-0.000476611,0.0003365486,-0.000408613,0.2230349,0.05068481,0.04274351
2023-10-24 11:01:20.128000000,0.1490341,0.0006739497,0.009966836,0.004716442,-0.00665561,-0.001833024,-0.002920262,-0.0002097449,0.007850671,-0.0003195049999999,0.0001050195999999,-0.0001941779999999,0.2229854,0.05069102,0.04285088
2023-10-24 11:01:20.141999872,0.1490862,0.0006828494,0.009903841,0.005875043,-0.005159205,-0.004410381,-0.003334687,3.579646e-05,0.007449776,-0.0004144249999999,0.00024554136,-0.000400895,0.2229271,0.05071009,0.04294841
2023-10-24 11:01:20.156000000,0.1491498,0.0007454641,0.009809829,0.007081484,-0.002894634,-0.008284129,-0.003959029,-6.965028e-05,0.007111099,-0.000624342,-0.00010544674,-0.0003386769999999,0.2228553,0.05070864,0.04303748
2023-10-24 11:01:20.168999936,0.149174,0.0008720905,0.009627311,0.006226791,-0.0005706003,-0.01658929,-0.004468161,-7.992282e-05,0.006824153,-0.0005091319999999,-1.0272539999999996e-05,-0.0002869459999999,0.2227798,0.05069529,0.04311847
2023-10-24 11:01:20.181999872,0.1492013,0.001061726,0.009335025,0.003236131,0.002357028,-0.02285989,-0.004784137,-6.260725e-05,0.006636104,-0.0003159759999999,1.7315570000000005e-05,-0.000188049,0.2227036,0.05067546,0.04319286
2023-10-24 11:01:20.196000000,0.1490457,0.001321409,0.009017057,0.0003221892,0.00266407,-0.0394735,-0.004950969,0.0002439237,0.006543848,-0.000166832,0.00030653095,-9.225600000000064e-05,0.2226166,0.05066245,0.04318906
2023-10-24 11:01:20.211000064,0.1488956,0.001471378,0.008976434,-0.009111928,0.0107939,-0.03058495,-0.005141749,8.035287e-05,0.006450462,-0.0001907799999999,-0.00016357083,-9.3386e-05,0.2225261,0.05065088,0.04318675
2023-10-24 11:01:20.224999936,0.148658,0.001651216,0.008686611,-0.01448622,0.008396342,-0.03221437,-0.005242186,-0.0004009965,0.006494083,-0.000100437,-0.00048134937,4.362100000000063e-05,0.2224438,0.0506105,0.04324533
2023-10-24 11:01:20.239000064,0.1484597,0.001844004,0.008419325,-0.02081301,0.007299482,-0.0374973,-0.004764759,-0.0006981736,0.00660813,0.0004774269999999,-0.0002971771,0.0001140469999999,0.2223886,0.05057367,0.04333057
2023-10-24 11:01:20.252999936,0.1484949,0.001902837,0.008074499,-0.01653025,0.003496102,-0.04751232,-0.004420419,-0.0005846327,0.006859822,0.00034434,0.0001135409,0.0002516919999999,0.2223359,0.05054521,0.04345378
2023-10-24 11:01:20.267000064,0.148389,0.002084184,0.007768455,-0.01543539,0.002942215,-0.04956896,-0.003783583,-2.369634e-06,0.007122469,0.000636836,0.000582263066,0.000262647,0.2223021,0.05053737,0.04363081
2023-10-24 11:01:20.280999936,0.1483954,0.002173554,0.007461215,-0.008019793,0.00142579,-0.05021862,-0.002716367,-0.0001030367,0.007570414,0.001067216,-0.000100667066,0.0004479449999999,0.2222931,0.05051073,0.04382192
2023-10-24 11:01:20.295000064,0.1482277,0.00205322,0.007209852,-0.01050123,-0.008557224,-0.04662411,-0.002148977,-0.0002791297,0.007557661,0.00056739,-0.000176093,-1.2752999999999896e-05,0.2222782,0.05048713,0.0439469
2023-10-24 11:01:20.308999936,0.1480867,0.002149846,0.006939005,-0.009477893,-0.007274428,-0.04143427,-0.00128675,-0.0008992134,0.007656993,0.0008622269999999,-0.0006200837,9.933199999999972e-05,0.2222839,0.05043985,0.04405376
2023-10-24 11:01:20.322000128,0.1480508,0.002252385,0.006663978,-0.01592805,-0.008415833,-0.03792183,-0.0008063936,-0.001397219,0.007648929,0.0004803563999999,-0.0004980055999999,-8.064000000000335e-06,0.222275,0.05038749,0.04411914
2023-10-24 11:01:20.336000000,0.1479292,0.002247952,0.006426904,-0.01488969,-0.007919376,-0.03583286,-0.0002604465,-0.001287847,0.007790366,0.0005459471,0.0001093719999999,0.000141437,0.2222629,0.05035573,0.04414935
2023-10-24 11:01:20.349999872,0.148077,0.00232821,0.006346934,-0.007520772,-0.0044935,-0.02561231,0.0002337179,-0.0008061487,0.007746507,0.0004941644,0.0004816982999999,-4.385900000000026e-05,0.2222595,0.05034863,0.04418072
2023-10-24 11:01:20.364000000,0.1480954,0.002331793,0.006329913,-0.001235011,-0.004119373,-0.01903681,0.0006646292,-0.0003879865,0.007689023,0.0004309112999999,0.0004181622,-5.748400000000001e-05,0.2222808,0.05035231,0.04428587
2023-10-24 11:01:20.378000128,0.148094,0.002356052,0.006388517,-0.00130639,-0.0007543173,-0.009974788,0.001175662,-0.0002562926,0.007760282,0.0005110328,0.0001316938999999,7.12590000000006e-05,0.2223126,0.05035538,0.04439396
2023-10-24 11:01:20.391000064,0.1481222,0.002345189,0.006434728,0.0007305564,-0.000540208,-0.004502001,0.001453457,-0.0001512635,0.007821593,0.0002777949999999,0.0001050291,6.131099999999966e-05,0.2223544,0.05035273,0.04451632
2023-10-24 11:01:20.404999936,0.1480936,0.002342805,0.006634526,-0.0004157553,0.00310902,0.005578275,0.001862615,7.132914e-05,0.007938654,0.0004091579999999,0.00022259264,0.0001170609999999,0.2224155,0.05036225,0.04464866
2023-10-24 11:01:20.416999936,0.1481348,0.002344463,0.006799015,0.001684047,0.00538729,0.01053288,0.002178886,0.0003291533,0.007984957,0.000316271,0.00025782416,4.630300000000101e-05,0.222471,0.05037564,0.04477376
2023-10-24 11:01:20.432000000,0.1482252,0.002273951,0.006999848,0.005816,0.004774446,0.01733224,0.002043125,0.0005054568,0.008011261,-0.000135761,0.0001763035,2.6303999999999564e-05,0.222496,0.05040238,0.04488801
2023-10-24 11:01:20.447000064,0.1482765,0.002266161,0.007054868,0.006912457,0.003969955,0.0142431,0.001841379,0.001006584,0.007920731,-0.0002017459999999,0.0005011272,-9.053000000000012e-05,0.2225162,0.05043573,0.04499586
2023-10-24 11:01:20.460999936,0.1483253,0.002166793,0.007148251,0.006807593,-0.0001638585,0.01527692,0.001379703,0.001488767,0.007714721,-0.000461676,0.0004821829999999,-0.00020601,0.2224527,0.05045499,0.04506308
2023-10-24 11:01:20.474999808,0.1483197,0.0021092,0.007309425,0.003587697,0.0006964729,0.01833011,0.000941938,0.001705717,0.007607896,-0.0004377649999999,0.00021695,-0.0001068249999999,0.2223787,0.05047064,0.04512563
2023-10-24 11:01:20.489000192,0.148313,0.002044804,0.007373713,0.001453673,-0.0008003922,0.01648302,0.00032126,0.001967598,0.007379438,-0.0006206779999999,0.000261881,-0.0002284579999999,0.2223283,0.05049707,0.04520453
2023-10-24 11:01:20.502000128,0.1484296,0.001938641,0.007429687,0.006689051,-0.004296412,0.01631127,-0.000508569,0.002030469,0.007298114,-0.000829829,6.287099999999993e-05,-8.132400000000067e-05,0.2222999,0.05053113,0.04531003
2023-10-24 11:01:20.515000064,0.1485982,0.001917515,0.007397819,0.01314415,-0.004728041,0.01097878,-0.001122251,0.002491541,0.007322945,-0.000613682,0.0004610719999999,2.483100000000033e-05,0.2222669,0.0505798,0.04541567
2023-10-24 11:01:20.528999936,0.1487479,0.001949184,0.007261886,0.01648509,-0.00509168,0.00119576,-0.001902514,0.002980545,0.007472792,-0.0007802629999999,0.0004890039999999,0.0001498469999999,0.2221992,0.05064109,0.04554251
2023-10-24 11:01:20.543000064,0.1489272,0.001991011,0.007103182,0.01873375,-0.00464722,-0.00549894,-0.00256724,0.00334696,0.007698111,-0.000664726,0.000366415,0.0002253189999999,0.2221243,0.05070145,0.04567339
2023-10-24 11:01:20.558000128,0.1491445,0.001944035,0.007074493,0.02083834,-0.006001588,-0.006237728,-0.003323721,0.003101981,0.007860883,-0.0007564809999999,-0.0002449789999999,0.000162772,0.2220509,0.05074109,0.04579612
2023-10-24 11:01:20.571000064,0.1491735,0.001924757,0.007078513,0.01868306,-0.005156955,-0.003168239,-0.004034622,0.002721248,0.008012299,-0.0007109009999999,-0.000380733,0.0001514159999999,0.2219762,0.05077016,0.04591262
2023-10-24 11:01:20.584000000,0.1492605,0.002084956,0.006896887,0.01884386,-0.001808554,-0.007316905,-0.004572605,0.002012255,0.008186492,-0.000537983,-0.0007089929999999,0.0001741929999999,0.2218954,0.05075946,0.04600959
2023-10-24 11:01:20.599000064,0.1492738,0.002063151,0.006875363,0.01146061,-0.001381738,-0.0108032,-0.005277483,0.001557554,0.008073679,-0.0007048779999999,-0.000454701,-0.0001128129999999,0.2217811,0.05070735,0.04602186
2023-10-24 11:01:20.612999936,0.1492947,0.002120472,0.006818858,0.008292043,-4.677714e-06,-0.01008132,-0.005902049,0.001295317,0.008025977,-0.000624566,-0.000262237,-4.770200000000016e-05,0.2216629,0.05065658,0.04603818
2023-10-24 11:01:20.628000000,0.1492949,0.002203234,0.006771892,0.005162925,0.002138942,-0.0106574,-0.006178293,0.001243822,0.008249076,-0.0002762439999999,-5.149500000000014e-05,0.0002230989999999,0.221566,0.05065522,0.0461337
2023-10-24 11:01:20.641999872,0.149376,0.002275832,0.006582903,0.007353041,0.0005022831,-0.01682852,-0.006588951,0.001073531,0.008547908,-0.000410658,-0.0001702909999999,0.000298832,0.2214631,0.05065269,0.04625734
2023-10-24 11:01:20.656000000,0.1493888,0.00243751,0.006354985,0.00427318,0.00132343,-0.02257344,-0.007033706,0.001367126,0.008930892,-0.0004447549999999,0.000293595,0.0003829839999999,0.2213632,0.05067103,0.04638584
2023-10-24 11:01:20.667000064,0.1494483,0.002642587,0.006520778,0.00758632,0.007194203,-0.02072958,-0.007265502,0.001661695,0.00930165,-0.000231796,0.0002945689999999,0.000370758,0.2212842,0.05073492,0.04651744
2023-10-24 11:01:20.683000064,0.1494851,0.002723876,0.006526213,0.007550631,0.01449649,-0.009374725,-0.007335502,0.002005029,0.009630413,-6.999999999999975e-05,0.000343334,0.000328763,0.2212062,0.0507962,0.04666015
2023-10-24 11:01:20.697999872,0.1495574,0.002788335,0.006697004,0.008493719,0.01555502,-0.000819767,-0.007489657,0.002057069,0.009835036,-0.000154155,5.2039999999999725e-05,0.0002046229999999,0.2211006,0.05083808,0.04679678
2023-10-24 11:01:20.711000064,0.1495484,0.002932351,0.00674883,0.005362509,0.01769268,-0.001403196,-0.007372151,0.002175516,0.009728944,0.0001175059999999,0.000118447,-0.000106092,0.2210017,0.05087367,0.04692009
2023-10-24 11:01:20.724000000,0.1495446,0.00307275,0.006733857,0.003292087,0.01824397,-0.003779382,-0.007722697,0.002055691,0.009391073,-0.0003505459999999,-0.000119825,-0.000337871,0.2208767,0.05089203,0.04703948
2023-10-24 11:01:20.736999936,0.1493909,0.003313355,0.006677094,0.0002011935,0.0180295,-0.009264796,-0.008329602,0.001726918,0.008902252,-0.000606905,-0.000328773,-0.000488821,0.2207304,0.05089089,0.04715072
2023-10-24 11:01:20.752000000,0.1494554,0.00355402,0.006540918,0.001432097,0.0210701,-0.01443839,-0.0082714,0.001543343,0.008504176,5.8202000000000254e-05,-0.000183575,-0.0003980759999999,0.2206037,0.05088608,0.04725683
2023-10-24 11:01:20.767000064,0.1495512,0.003709104,0.006479443,0.004517294,0.01530854,-0.01512421,-0.008554225,0.00164293,0.007980237,-0.000282825,9.958699999999994e-05,-0.000523939,0.2204764,0.05090525,0.04734356
2023-10-24 11:01:20.780000000,0.1496881,0.003790624,0.006353224,0.010987,0.0179961,-0.01682078,-0.008164803,0.001706849,0.00752963,0.000389422,6.391900000000017e-05,-0.0004506069999999,0.2203736,0.05092216,0.04743148
2023-10-24 11:01:20.792999936,0.1498162,0.003914662,0.006274928,0.01304274,0.01459291,-0.01701682,-0.008015788,0.001656432,0.007098624,0.000149015,-5.041700000000008e-05,-0.0004310059999999,0.2203269,0.05090429,0.04747493
2023-10-24 11:01:20.808000000,0.1499929,0.003911257,0.006387312,0.01710757,0.01169748,-0.01069955,-0.007581121,0.001180097,0.006744443,0.0004346669999999,-0.000476335,-0.000354181,0.220312,0.05087207,0.04751241
2023-10-24 11:01:20.822000128,0.1500974,0.004039619,0.006308259,0.01807185,0.008853696,-0.008841246,-0.00703103,0.001050962,0.006733186,0.000550091,-0.000129135,-1.125699999999976e-05,0.2202699,0.05085664,0.04757616
2023-10-24 11:01:20.835000064,0.1501606,0.00402882,0.006445677,0.01267148,0.01029312,-0.003796456,-0.006241622,0.001063567,0.006677351,0.000789408,1.2605000000000168e-05,-5.5835000000000606e-05,0.2202052,0.050881,0.04766622
2023-10-24 11:01:20.849999872,0.150156,0.004014071,0.006536844,0.008256849,0.008626719,0.002073898,-0.005906643,0.0007447607,0.006693576,0.000334979,-0.0003188063,1.622499999999992e-05,0.2201316,0.05088743,0.0477576
2023-10-24 11:01:20.864000000,0.1499978,0.004022107,0.006633972,-0.004644558,0.005311708,0.004918221,-0.005595032,0.0001066911,0.006455985,0.0003116109999999,-0.0006380696,-0.0002375909999999,0.2200801,0.05082919,0.04779506
2023-10-24 11:01:20.878000128,0.1496734,0.003928248,0.006638238,-0.01854643,0.002516169,0.005406463,-0.005151087,-0.0008273396,0.006171874,0.0004439449999999,-0.0009340307,-0.000284111,0.2200263,0.05074697,0.04782968
2023-10-24 11:01:20.891000064,0.1493839,0.003719684,0.006517332,-0.0218453,-0.004407848,0.003835271,-0.004814977,-0.001625163,0.006137876,0.00033611,-0.0007978234,-3.399800000000036e-05,0.2199722,0.05067972,0.04791275
2023-10-24 11:01:20.904999936,0.1494614,0.003672931,0.006801013,-0.01777326,-0.004688071,0.01169227,-0.004472008,-0.001929173,0.006128571,0.0003429689999999,-0.0003040099999999,-9.304999999999383e-06,0.2199212,0.05066203,0.04799769
2023-10-24 11:01:20.917999872,0.1493948,0.003516532,0.006807947,-0.01364822,-0.01020871,0.01207809,-0.004135379,-0.001669727,0.006032197,0.000336629,0.000259446,-9.637399999999977e-05,0.2198839,0.05065223,0.04809055
2023-10-24 11:01:20.934000128,0.1493361,0.003435586,0.006664878,-0.01144547,-0.01288362,0.006184347,-0.003386257,-0.001446647,0.006011578,0.0007491219999999,0.00022308,-2.061900000000037e-05,0.2199396,0.05066155,0.04819069
2023-10-24 11:01:20.947000064,0.1493281,0.003158577,0.006448643,-0.01471327,-0.01876969,0.004349743,-0.003198646,-0.001278143,0.00590823,0.000187611,0.0001685039999999,-0.0001033479999999,0.2199789,0.05066679,0.04829867
2023-10-24 11:01:20.960999936,0.1492412,0.0030424,0.006384552,-0.008245962,-0.02049727,-0.001734204,-0.00275241,-0.001389203,0.005721522,0.000446236,-0.00011106,-0.000186708,0.2199724,0.05064815,0.04838353
2023-10-24 11:01:20.973999872,0.1490946,0.002868246,0.006493572,-0.01270285,-0.02450061,0.003628508,-0.002513079,-0.0009567245,0.005279518,0.0002393309999999,0.0004324785,-0.0004420039999999,0.219944,0.05065433,0.04845491
2023-10-24 11:01:20.989000192,0.1490048,0.002698552,0.006445301,-0.01384004,-0.02601757,0.00620014,-0.002144777,-0.0007120883,0.004787713,0.000368302,0.0002446361999999,-0.000491805,0.219923,0.05063612,0.04850936
2023-10-24 11:01:21.002000128,0.1489589,0.002520554,0.006401955,-0.01380945,-0.02498621,0.005943321,-0.00181115,-0.000460409,0.004132446,0.0003336269999999,0.0002516793,-0.000655267,0.2199024,0.05059985,0.04853258
2023-10-24 11:01:21.016000000,0.1489734,0.002328787,0.006455473,-0.01056096,-0.01987506,0.009097484,-0.001374311,-0.0001616579,0.003722097,0.000436839,0.0002987511,-0.0004103489999999,0.21989,0.05057551,0.04855657
2023-10-24 11:01:21.029999872,0.1492221,0.00222417,0.006323645,-0.002096949,-0.02212727,0.009783778,-0.001319753,0.0003238083,0.003298908,5.455800000000013e-05,0.0004854662,-0.000423189,0.2198719,0.05058336,0.04859728
2023-10-24 11:01:21.044000000,0.1490774,0.001968455,0.006610121,0.002111749,-0.0198853,0.01474714,-0.0008168066,0.0003783151,0.003165871,0.0005029463999999,5.450679999999996e-05,-0.000133037,0.219875,0.05061053,0.04865158
2023-10-24 11:01:21.059000064,0.1490744,0.001803376,0.006559301,-0.001192919,-0.0218493,0.01962624,-8.377987e-05,-0.0002132617,0.003155135,0.00073302673,-0.0005915768,-1.0735999999999904e-05,0.2198969,0.05059313,0.04869936
2023-10-24 11:01:21.072999936,0.1486658,0.001454484,0.006689203,-0.01094609,-0.02523331,0.02697629,0.0004887078,-0.0009698505,0.003098006,0.0005724876699999,-0.0007565888,-5.712899999999995e-05,0.2199267,0.05057616,0.0487516
2023-10-24 11:01:21.085999872,0.1487315,0.001216609,0.006819461,-0.01313994,-0.02904467,0.02464164,0.0008947557,-0.00149196,0.003217064,0.0004060479,-0.0005221095,0.000119058,0.2199559,0.05055323,0.04880624
2023-10-24 11:01:21.100000000,0.1487887,0.0008111857,0.006874844,-0.01214902,-0.03215506,0.02546209,0.001307212,-0.00111233,0.003345167,0.0004124563,0.00037963,0.000128103,0.2199859,0.05055382,0.04888104
2023-10-24 11:01:21.114000128,0.1487518,0.0005313531,0.00699018,-0.006939029,-0.03434441,0.03044495,0.001557017,-0.0005974056,0.003269184,0.0002498049999999,0.0005149244,-7.598299999999995e-05,0.2200164,0.05056802,0.04894025
2023-10-24 11:01:21.128000000,0.1488523,0.0002445355,0.007064957,-0.00160552,-0.03500018,0.02844322,0.001797461,-0.0001288412,0.003095964,0.000240444,0.0004685643999999,-0.0001732199999999,0.2200697,0.05053579,0.0489755
2023-10-24 11:01:21.141999872,0.1487184,-9.723008e-05,0.007096817,-0.001558414,-0.03372156,0.0291998,0.001933039,0.000155488,0.002773956,0.0001355779999999,0.0002843292,-0.0003220079999999,0.2201243,0.05049425,0.04900491
2023-10-24 11:01:21.156000000,0.148662,-0.0002583042,0.007267659,-0.002605608,-0.03318654,0.02685374,0.001971361,0.0002415805,0.002422187,3.832200000000014e-05,8.60925e-05,-0.000351769,0.2201661,0.05048168,0.04902581
2023-10-24 11:01:21.170000128,0.1487202,-0.0005110577,0.007162006,-0.006735428,-0.03100689,0.02191366,0.001996068,0.0004276129,0.002078294,2.470700000000012e-05,0.0001860323999999,-0.000343893,0.2201931,0.05048835,0.04906264
2023-10-24 11:01:21.181999872,0.1486039,-0.0008059964,0.007188888,-0.004572115,-0.03056751,0.01958656,0.001620791,0.0002536933,0.001732651,-0.000375277,-0.0001739196,-0.000345643,0.2202051,0.05049114,0.0490958
2023-10-24 11:01:21.196999936,0.1486284,-0.000850454,0.007242217,-0.003423526,-0.02802248,0.01674612,0.001257006,0.0005095711,0.001388878,-0.0003637849999999,0.0002558778,-0.0003437729999999,0.220258,0.05053276,0.04909958
2023-10-24 11:01:21.211000064,0.1486587,-0.001039367,0.007256859,-4.676129e-05,-0.0224456,0.01313224,0.0008506741,0.001065162,0.001179366,-0.0004063319,0.0005555908999999,-0.000209512,0.2203148,0.05059282,0.04911143
2023-10-24 11:01:21.224000000,0.1488484,-0.001095481,0.007044179,0.007558238,-0.0185431,0.007733226,0.0004224335,0.001392173,0.0008514998,-0.0004282405999999,0.000327011,-0.0003278662,0.2203365,0.05062282,0.04911374
2023-10-24 11:01:21.237999872,0.148921,-0.001169764,0.007099686,0.009797272,-0.01500352,0.004628669,6.073394e-05,0.001500779,0.0006667499,-0.00036169956,0.000108606,-0.0001847498999999,0.2203268,0.05065222,0.04912199
2023-10-24 11:01:21.252999936,0.1489476,-0.001214311,0.007113434,0.00776729,-0.01158342,0.004869416,-0.0003521006,0.001488772,0.0003416441,-0.0004128345399999,-1.2007000000000077e-05,-0.0003251058,0.2203106,0.05066906,0.04911886
2023-10-24 11:01:21.267000064,0.1490062,-0.001189202,0.0071017,0.007918824,-0.006685495,0.00252757,-0.00061141,0.001353923,3.127248e-05,-0.0002593093999999,-0.000134849,-0.0003103716199999,0.220292,0.05064435,0.04909818
2023-10-24 11:01:21.280000000,0.1489995,-0.001248706,0.00709356,0.004698892,-0.007622696,0.002776079,-0.0009376371,0.001304354,-0.0003998325,-0.0003262271,-4.956899999999996e-05,-0.0004311049799999,0.220268,0.05062302,0.04907423
2023-10-24 11:01:21.293999872,0.1490586,-0.001238022,0.007148868,0.005861365,-0.004033719,0.004064737,-0.0007990508,0.001120676,-0.000869299,0.0001385863,-0.000183678,-0.0004694665,0.2202612,0.05062555,0.04904607
2023-10-24 11:01:21.306999808,0.1492109,-0.001288589,0.007092218,0.01107361,-0.008074523,0.001768621,-0.0007868716,0.001064476,-0.001325191,1.2179200000000034e-05,-5.619999999999996e-05,-0.000455892,0.2202553,0.05063345,0.04902043
2023-10-24 11:01:21.322000128,0.1493024,-0.00147064,0.007135246,0.01106158,-0.007791564,0.007206572,-0.0002931968,0.001301575,-0.001788709,0.0004936748,0.0002370989999999,-0.000463518,0.220262,0.05065809,0.04899305
2023-10-24 11:01:21.336000000,0.1493948,-0.001655988,0.007078876,0.01294672,-0.01610378,0.009314221,-6.276899e-05,0.001379471,-0.002282575,0.00023042781,7.789600000000004e-05,-0.0004938659999999,0.2203168,0.05066326,0.04896765
2023-10-24 11:01:21.348999936,0.1496111,-0.001988377,0.006971407,0.01713008,-0.01908188,0.00674005,0.0005483078,0.001444503,-0.002486357,0.00061107679,6.503200000000002e-05,-0.000203782,0.2203796,0.05066573,0.04895474
2023-10-24 11:01:21.364000000,0.1498636,-0.002087116,0.007130224,0.02351127,-0.01875171,0.008827117,0.0004726957,0.001574066,-0.00248334,-7.56121e-05,0.000129563,3.01699999999969e-06,0.2203877,0.05070086,0.04892483
2023-10-24 11:01:21.379000064,0.1499924,-0.002002683,0.007278227,0.02792062,-0.01316744,0.01398982,-0.0001537879,0.001924818,-0.00239871,-0.0006264835999999,0.0003507519999999,8.463000000000004e-05,0.2203708,0.05074592,0.04888718
2023-10-24 11:01:21.392000000,0.1501784,-0.002018429,0.007574332,0.0260207,-0.005330042,0.01859866,-0.0004087062,0.00178873,-0.00245207,-0.0002549183,-0.0001360879999999,-5.3360000000000126e-05,0.22034,0.05077756,0.048831
2023-10-24 11:01:21.404999936,0.1501789,-0.002232801,0.007764864,0.01859341,-0.004838834,0.01961125,-0.0006056488,0.001450165,-0.002202031,-0.0001969426,-0.000338565,0.000250039,0.2202855,0.05078427,0.04878086
2023-10-24 11:01:21.418999808,0.1499291,-0.002340067,0.007711425,0.00356039,-0.009247515,0.02195774,-0.001003356,0.001008028,-0.00247349,-0.0003977071999999,-0.000442137,-0.0002714589999999,0.2202286,0.05076941,0.04871635
2023-10-24 11:01:21.434000128,0.1496153,-0.002433788,0.007928149,-0.01443017,-0.006098014,0.01908036,-0.001205971,-4.484667e-05,-0.002354362,-0.0002026149999999,-0.00105287467,0.000119128,0.2202038,0.0507538,0.04869043
2023-10-24 11:01:21.447000064,0.1491715,-0.002586495,0.007804757,-0.03155392,-0.009440322,0.01677507,-0.001998581,-0.001479623,-0.002559694,-0.00079261,-0.00143477633,-0.0002053319999999,0.2201573,0.05069085,0.0486621
2023-10-24 11:01:21.460999936,0.1487475,-0.002640031,0.007648406,-0.0454196,-0.01034582,0.007211757,-0.002463527,-0.003240729,-0.002468675,-0.0004649459999999,-0.001761106,9.101899999999992e-05,0.2201385,0.05058103,0.0486476
2023-10-24 11:01:21.476000000,0.1481985,-0.002569485,0.007582111,-0.05598531,-0.007963589,0.002269123,-0.002621416,-0.004492974,-0.00196064,-0.000157889,-0.001252245,0.000508035,0.2201303,0.05046889,0.04864292
2023-10-24 11:01:21.489000192,0.1481288,-0.002680734,0.007497236,-0.04338761,-0.0133031,0.0002049961,-0.003080703,-0.004928565,-0.001565033,-0.000459287,-0.0004355909999999,0.000395607,0.2200951,0.05037673,0.04864871
2023-10-24 11:01:21.503000064,0.1478309,-0.002628509,0.007818057,-0.04507593,0.0002430886,0.005623035,-0.003789321,-0.004851484,-0.00137479,-0.0007086179999999,7.708100000000054e-05,0.0001902429999999,0.2200246,0.05033222,0.04862792
2023-10-24 11:01:21.516999936,0.1475921,-0.002325129,0.007582438,-0.03945519,0.009573952,-0.004489383,-0.004590306,-0.00556469,-0.0009041736,-0.0008009849999999,-0.000713206,0.0004706164,0.2199357,0.05021865,0.04861112
2023-10-24 11:01:21.530999808,0.1473855,-0.002071641,0.007592465,-0.04035268,0.01452321,-0.01123574,-0.005063253,-0.005588091,-0.0009583514,-0.000472947,-2.340100000000015e-05,-5.417780000000004e-05,0.2198438,0.05014093,0.04857027
2023-10-24 11:01:21.544000000,0.14721,-0.001975693,0.007550951,-0.03696559,0.02061865,-0.01276242,-0.005345709,-0.00553663,-0.0007942383,-0.0002824559999999,5.146100000000004e-05,0.0001641131,0.2197529,0.05006265,0.04854899
2023-10-24 11:01:21.556999936,0.1468254,-0.001790442,0.007655732,-0.04008295,0.02279723,-0.008873481,-0.005450464,-0.005426571,-0.0009464173,-0.000104755,0.000110059,-0.000152179,0.2196709,0.04999587,0.0485165
2023-10-24 11:01:21.571000064,0.1465328,-0.001659509,0.007897445,-0.03884982,0.02792444,-0.001332445,-0.005428551,-0.005780182,-0.000944798,2.191300000000014e-05,-0.000353611,1.6193000000000069e-06,0.2195954,0.04991873,0.04849391
2023-10-24 11:01:21.584999936,0.1463199,-0.001457755,0.008002917,-0.04312741,0.02754411,0.0009656948,-0.005119944,-0.004923994,-0.001201108,0.0003086069999999,0.0008561879999999,-0.00025631,0.2195354,0.04987944,0.04846366
2023-10-24 11:01:21.601000192,0.1461794,-0.001240883,0.008225776,-0.03236153,0.03131416,0.004384443,-0.004354619,-0.004054686,-0.001467245,0.000765325,0.000869308,-0.000266137,0.2195221,0.04986861,0.0484709
2023-10-24 11:01:21.615000064,0.1460892,-0.001107961,0.00857133,-0.0249669,0.03099041,0.01761078,-0.004217586,-0.002872013,-0.002103427,0.0001370329999999,0.001182673,-0.000636182,0.2194935,0.04989114,0.04846127
2023-10-24 11:01:21.628999936,0.1461591,-0.0009412915,0.008715052,-0.0131669,0.03344087,0.01586914,-0.003845948,-0.001680715,-0.002747852,0.0003716379999999,0.001191298,-0.0006444249999999,0.2194543,0.04990916,0.04840282
2023-10-24 11:01:21.641999872,0.1462817,-0.0008314066,0.008777048,-0.001603872,0.02816995,0.009416288,-0.004146477,0.0001679083,-0.003505423,-0.0003005289999999,0.0018486232999999,-0.000757571,0.219388,0.04996337,0.04832591
2023-10-24 11:01:21.655000064,0.1466848,-0.0008134209,0.008606648,0.01845083,0.02235338,0.001968647,-0.004610859,0.002168629,-0.004334383,-0.000464382,0.0020007207,-0.0008289599999999,0.2193214,0.05002036,0.0482401
2023-10-24 11:01:21.670000128,0.1471314,-0.0006833337,0.008790444,0.03755082,0.01935779,-0.002843624,-0.004824087,0.003931259,-0.004771872,-0.000213228,0.00176263,-0.000437489,0.2192772,0.05008997,0.04814232
2023-10-24 11:01:21.681999872,0.1475947,-0.000609871,0.008558696,0.04804664,0.0146368,-0.007212198,-0.005020415,0.005041832,-0.005287525,-0.0001963279999999,0.001110573,-0.000515653,0.2192271,0.05013515,0.04804179
2023-10-24 11:01:21.697999872,0.1478992,-0.0005137958,0.008414288,0.04569272,0.007502044,-0.009837646,-0.005493366,0.005799979,-0.00557762,-0.000472951,0.0007581469999999,-0.0002900949999999,0.2191388,0.05022433,0.04794992
2023-10-24 11:01:21.711000064,0.1481755,-0.0004935153,0.008390319,0.04869841,0.001188399,-0.01266898,-0.006103057,0.005536591,-0.005844046,-0.0006096909999999,-0.0002633879999999,-0.000266426,0.2190382,0.05029148,0.04785913
2023-10-24 11:01:21.724999936,0.1485391,-0.0004220009,0.008112551,0.04872307,0.0004321331,-0.0201774,-0.006234637,0.005209176,-0.00560664,-0.00013158,-0.000327415,0.0002374059999999,0.2189409,0.0503412,0.0477903
2023-10-24 11:01:21.737999872,0.1488789,-0.0004131161,0.007936751,0.04758672,-0.00237931,-0.02277717,-0.006597542,0.00484349,-0.005191702,-0.0003629049999999,-0.000365686,0.000414938,0.218827,0.05039541,0.04773655
2023-10-24 11:01:21.750999808,0.1491718,-0.0004523359,0.007814951,0.04857614,-0.004483256,-0.02225564,-0.00674509,0.004285384,-0.004560257,-0.0001475479999999,-0.000558106,0.000631445,0.2187198,0.05044,0.04769818
2023-10-24 11:01:21.766000128,0.149324,-0.0004382394,0.007573631,0.03997256,-0.007021347,-0.02050165,-0.006697288,0.003875541,-0.003863322,4.780199999999957e-05,-0.0004098429999999,0.0006969349999999,0.2186272,0.05046866,0.0476644
2023-10-24 11:01:21.779000064,0.1494362,-0.0004135668,0.007441385,0.03240547,-0.01011691,-0.01639661,-0.00668292,0.002988078,-0.00331573,1.4367999999999846e-05,-0.000887463,0.000547592,0.2185333,0.05047859,0.04763212
2023-10-24 11:01:21.795000064,0.1494196,-0.0005760901,0.007381692,0.02164041,-0.01339326,-0.0133687,-0.00679955,0.002013985,-0.002795183,-0.0001166299999999,-0.000974093,0.0005205469999999,0.2183832,0.05049733,0.04759879
2023-10-24 11:01:21.808999936,0.1492699,-0.0006857999,0.007216116,0.009847881,-0.01665058,-0.01473825,-0.006534928,0.0009944481,-0.002309843,0.0002646219999999,-0.0010195368999999,0.00048534,0.2182378,0.05049574,0.04756599
2023-10-24 11:01:21.823000064,0.1492524,-0.0008904487,0.006955075,-0.002031645,-0.02249404,-0.01322797,-0.006012958,0.0002778085,-0.001864774,0.00052197,-0.0007166396,0.0004450689999999,0.2181375,0.0504754,0.04755617
2023-10-24 11:01:21.838000128,0.1491282,-0.001245305,0.006848651,-0.009754314,-0.0310311,-0.008828939,-0.005631456,-0.0003422356,-0.001531432,0.0003815019999999,-0.0006200441,0.0003333419999999,0.2180693,0.05044971,0.04756694
2023-10-24 11:01:21.851000064,0.1489747,-0.001362629,0.006771402,-0.01193833,-0.0325017,-0.006256004,-0.004914363,-0.0008802271,-0.001228273,0.000717093,-0.0005379915,0.000303159,0.218017,0.05042074,0.04756848
2023-10-24 11:01:21.865999872,0.1488532,-0.001726221,0.006711378,-0.01308715,-0.03477519,-0.002367728,-0.00438749,-0.00100097,-0.0008352799,0.0005268729999999,-0.0001207428999999,0.0003929931,0.2179351,0.05042012,0.04761333
2023-10-24 11:01:21.879000064,0.1488378,-0.001806412,0.006367597,-0.01096767,-0.03666768,-0.005203047,-0.003941561,-0.0007689537,-0.0005787091,0.000445929,0.0002320162999999,0.0002565707999999,0.2178566,0.05041131,0.04763999
2023-10-24 11:01:21.892999936,0.1489027,-0.002159681,0.006242256,-0.007877819,-0.04036113,-0.002063938,-0.003798281,-0.0003997475,-0.0005253805,0.0001432799999999,0.0003692062,5.3328599999999935e-05,0.2177959,0.05041657,0.04766326
2023-10-24 11:01:21.905999872,0.1488374,-0.002321601,0.006206763,-0.004618158,-0.03761424,-0.003893855,-0.00311006,8.918161e-05,-0.0004611619,0.000688221,0.00048892911,6.421860000000004e-05,0.21777,0.05043103,0.04766853
2023-10-24 11:01:21.918999808,0.1487735,-0.002694197,0.006101227,-0.002579105,-0.04076833,-0.003122827,-0.002961939,0.000571485,-0.0006255817,0.000148121,0.00048230339,-0.0001644197999999,0.2177292,0.05046117,0.04768825
2023-10-24 11:01:21.934000128,0.1489059,-0.002851397,0.005993225,0.0006876171,-0.0387773,0.0007659872,-0.0026797,0.001025506,-0.0009268776,0.0002822389999999,0.000454021,-0.0003012959,0.2176933,0.05051287,0.0477007
2023-10-24 11:01:21.947000064,0.1489929,-0.003072921,0.005822359,0.002919628,-0.03547608,0.001016424,-0.002493874,0.001469948,-0.00121902,0.000185826,0.0004444419999999,-0.0002921423999999,0.217658,0.05056798,0.0477149
2023-10-24 11:01:21.963000064,0.1490504,-0.003153581,0.005747464,0.00618233,-0.03222216,-0.00314668,-0.002420998,0.001737005,-0.001405617,7.287599999999993e-05,0.000267057,-0.000186597,0.2176268,0.05059579,0.04769645
2023-10-24 11:01:21.976000000,0.1491015,-0.003135905,0.005711445,0.008440208,-0.02762543,-0.002132087,-0.002308077,0.001808553,-0.001393292,0.000112921,7.154800000000005e-05,1.2325000000000096e-05,0.2175978,0.05062137,0.04767744
2023-10-24 11:01:21.988000000,0.1490783,-0.003370855,0.005523826,0.007477655,-0.02372691,-0.004219482,-0.002046319,0.001705306,-0.001323622,0.0002617579999999,-0.000103247,6.966999999999998e-05,0.2175778,0.05063272,0.04767503
2023-10-24 11:01:22.002000128,0.1491178,-0.003444944,0.005597205,0.002267975,-0.01970382,-0.001867368,-0.002144308,0.001363604,-0.001257024,-9.798900000000016e-05,-0.0003417019999999,6.659799999999996e-05,0.2175564,0.05064271,0.04765504
2023-10-24 11:01:22.016000000,0.149158,-0.0034508,0.005530879,0.003446329,-0.01483613,-0.00422024,-0.002317005,0.001247687,-0.0008261421,-0.0001726969999999,-0.000115917,0.0004308819,0.2175301,0.0506478,0.04764688
2023-10-24 11:01:22.032000000,0.1490836,-0.003423769,0.005485889,-0.001743409,-0.00953549,-0.005502821,-0.002294685,0.00119695,-0.0005677287,2.2320000000000152e-05,-5.073699999999992e-05,0.0002584134,0.2175004,0.05066006,0.04764364
2023-10-24 11:01:22.045000192,0.1489206,-0.003388546,0.005416759,-0.009098694,-0.005473555,-0.007543533,-0.002267885,0.0003387619,6.938964e-05,2.68e-05,-0.0008581881,0.00063711834,0.2174682,0.05063892,0.04765916
2023-10-24 11:01:22.059000064,0.1485867,-0.003382396,0.005266827,-0.01869486,-0.004727624,-0.01421625,-0.002522031,-0.0007871609,0.0006839252,-0.000254146,-0.0011259228,0.00061453556,0.2174145,0.05055323,0.04767409
2023-10-24 11:01:22.072999936,0.1484582,-0.003108419,0.005151479,-0.02172918,0.001539339,-0.01577694,-0.002495348,-0.001190921,0.001545672,2.6683e-05,-0.0004037601,0.0008617468,0.2173636,0.05046356,0.04768526
2023-10-24 11:01:22.085999872,0.1486216,-0.003134053,0.005098249,-0.00677606,0.003748361,-0.01431268,-0.002493086,-0.0004716745,0.002617172,2.2620000000002707e-06,0.0007192464999999,0.0010715,0.2173167,0.05043681,0.04773932
2023-10-24 11:01:22.101000192,0.1487619,-0.003130078,0.005208598,0.002883298,0.00482759,-0.004794708,-0.002388807,0.0008429035,0.002976779,0.0001042789999999,0.001314578,0.000359607,0.2172862,0.0504913,0.04778944
2023-10-24 11:01:22.112000000,0.1489089,-0.003100857,0.005381572,0.009387825,0.007790387,0.003185402,-0.002186511,0.001691104,0.003488001,0.000202296,0.0008482004999999,0.000511222,0.2172619,0.05054991,0.04784857
2023-10-24 11:01:22.128999936,0.1488678,-0.003079001,0.005407052,0.004032436,0.006632539,0.00244394,-0.002127176,0.00202173,0.00335027,5.933499999999977e-05,0.0003306259999999,-0.000137731,0.2172249,0.05061907,0.04787674
2023-10-24 11:01:22.140999936,0.1488537,-0.003025893,0.005280958,0.001796139,0.003821557,-0.004526738,-0.002057892,0.001794551,0.003353318,6.928400000000019e-05,-0.0002271789999999,3.0480000000002866e-06,0.2171866,0.05067048,0.04790325
2023-10-24 11:01:22.156000000,0.1487386,-0.003012549,0.005163386,-0.004678851,0.0008704161,-0.008108852,-0.002093932,0.001012079,0.00305165,-3.604000000000021e-05,-0.000782472,-0.000301668,0.2171493,0.05067953,0.04792871
2023-10-24 11:01:22.168999936,0.1486073,-0.003082596,0.005164534,-0.008978598,-0.002105785,-0.002900759,-0.002034361,-0.0001414151,0.003132492,5.9571000000000016e-05,-0.0011534941,8.084200000000024e-05,0.2171222,0.05064945,0.0479781
2023-10-24 11:01:22.181999872,0.1484329,-0.003137674,0.005072897,-0.01545152,-0.005569201,-0.004152875,-0.001777844,-0.0006462422,0.003134779,0.000256517,-0.0005048270999999,2.286999999999689e-06,0.2171045,0.05061996,0.04802633
2023-10-24 11:01:22.196999936,0.1484473,-0.003192805,0.005041984,-0.01014114,-0.006473592,-0.002886247,-0.00160298,-0.001170127,0.003207642,0.000174864,-0.0005238848,7.286300000000027e-05,0.2170668,0.05054604,0.04806866
2023-10-24 11:01:22.211000064,0.1484889,-0.003235132,0.005078225,-0.004752794,-0.004527877,0.0009635458,-0.001714572,-0.001102667,0.003100771,-0.0001115919999999,6.745999999999987e-05,-0.000106871,0.2170177,0.05049214,0.04810306
2023-10-24 11:01:22.226000128,0.1485215,-0.003246203,0.004898431,-0.001661893,-0.006691725,-0.007337079,-0.001746207,-0.0004457847,0.003097222,-3.1635000000000127e-05,0.0006568823,-3.5489999999998266e-06,0.2169819,0.05047603,0.04814447
2023-10-24 11:01:22.240000000,0.1484948,-0.003291085,0.004935286,-0.002662604,-0.005362626,-0.002154404,-0.001781927,-0.0003085979,0.002734447,-3.5719999999999936e-05,0.0001371867999999,-0.000362775,0.2169563,0.05047857,0.04817632
2023-10-24 11:01:22.253999872,0.148439,-0.003283799,0.00494414,-0.004722584,-0.002727096,-0.0005908244,-0.001918315,-0.0003440221,0.002536371,-0.000136388,-3.5424200000000006e-05,-0.000198076,0.216917,0.05047207,0.04821179
2023-10-24 11:01:22.266000128,0.1484299,-0.003266055,0.005076814,-0.003514987,0.001908209,0.004833562,-0.002261637,-0.0005764813,0.002315048,-0.0003433219999999,-0.0002324591999999,-0.0002213229999999,0.2168368,0.05046184,0.04826012
2023-10-24 11:01:22.280999936,0.1483731,-0.003222995,0.005064914,-0.005634654,0.003243979,0.00122156,-0.002498144,-0.0004222625,0.00240941,-0.0002365069999999,0.0001542187999999,9.436199999999974e-05,0.216756,0.05045263,0.04831811
2023-10-24 11:01:22.295000064,0.1484864,-0.003158178,0.004998029,0.001779953,0.003054149,-0.003227091,-0.002778769,-0.0002377653,0.002558644,-0.000280625,0.0001844972,0.000149234,0.2167044,0.05044831,0.04835697
2023-10-24 11:01:22.308999936,0.1485481,-0.003033709,0.005001384,0.004009516,0.007393228,-0.003244934,-0.003082365,0.0002407197,0.00274993,-0.000303596,0.0004784849999999,0.0001912859999999,0.2166554,0.05046349,0.04839299
2023-10-24 11:01:22.322000128,0.1486893,-0.002963897,0.00517796,0.009474467,0.01140834,0.004483884,-0.003387122,0.0001525419,0.003226991,-0.0003047569999999,-8.81778e-05,0.000477061,0.216587,0.0504692,0.04842214
2023-10-24 11:01:22.336999936,0.1487412,-0.00291713,0.005267674,0.008424514,0.01169454,0.005524207,-0.003409597,0.0002126027,0.00351437,-2.24750000000001e-05,6.006079999999999e-05,0.000287379,0.2165003,0.05046847,0.04841634
2023-10-24 11:01:22.351000064,0.1488028,-0.002900925,0.005254004,0.008331362,0.008584971,0.001904696,-0.003523069,0.0001871211,0.003881583,-0.000113472,-2.5481599999999983e-05,0.0003672129999999,0.2164099,0.05045857,0.04842127
2023-10-24 11:01:22.364000000,0.1488353,-0.002826992,0.005127875,0.007175263,0.006520098,-0.006369419,-0.00374443,0.0006450689,0.004116219,-0.0002213609999999,0.0004579478,0.0002346359999999,0.2163496,0.05047,0.04847879
2023-10-24 11:01:22.378000128,0.148884,-0.002757393,0.005058789,0.007152795,0.005997004,-0.008439072,-0.003997166,0.00134323,0.004315189,-0.0002527359999999,0.0006981610999999,0.0001989699999999,0.2162872,0.05050204,0.04854017
2023-10-24 11:01:22.391000064,0.1489936,-0.002723731,0.005051626,0.01033591,0.005414604,-0.006119591,-0.004010001,0.002074447,0.004500345,-1.2835000000000103e-05,0.000731217,0.000185156,0.2162612,0.05055211,0.04861179
2023-10-24 11:01:22.405999872,0.1491288,-0.002745211,0.004959006,0.01341245,0.0006860688,-0.007157333,-0.003882253,0.002591031,0.004549187,0.000127748,0.000516584,4.884199999999946e-05,0.2162561,0.05060007,0.04868617
2023-10-24 11:01:22.418999808,0.1492298,-0.00278661,0.004947437,0.01442955,-0.001909888,-0.004306642,-0.003597412,0.002248098,0.004911814,0.000284841,-0.000342933,0.0003626269999999,0.2162435,0.05062602,0.04877197
2023-10-24 11:01:22.433000192,0.1492536,-0.00276453,0.004913903,0.01126221,-0.0008020303,-0.004554223,-0.003345193,0.001975775,0.005344932,0.0002522189999999,-0.000272323,0.000433118,0.2162033,0.05064607,0.04885632
2023-10-24 11:01:22.447000064,0.1492,-0.002830405,0.004866436,0.004815504,-0.003747225,-0.003737157,-0.003297564,0.001720574,0.005778253,4.762900000000042e-05,-0.0002552009999999,0.0004333209999999,0.2161563,0.05066116,0.04895209
2023-10-24 11:01:22.461999872,0.1491837,-0.002920911,0.004796205,0.001525193,-0.008060226,-0.003703987,-0.003179448,0.001357466,0.006347629,0.0001181159999999,-0.000363108,0.0005693759999999,0.216118,0.05068402,0.04905765
2023-10-24 11:01:22.476000000,0.1492021,-0.003001068,0.004707051,0.001438285,-0.01168245,-0.004983959,-0.003011965,0.0008501153,0.006853435,0.0001674829999999,-0.0005073507,0.000505806,0.2160857,0.05069881,0.04916718
2023-10-24 11:01:22.488000000,0.1491079,-0.003088683,0.004713428,-0.003866056,-0.01180152,-0.001590005,-0.002771175,0.000872354,0.007257937,0.00024079,2.2238699999999967e-05,0.000404502,0.216056,0.05072253,0.04928214
2023-10-24 11:01:22.503000064,0.1490404,-0.003209844,0.004703249,-0.005987384,-0.01276408,0.003085749,-0.002562244,0.0007403663,0.007369498,0.0002089309999999,-0.0001319877,0.000111561,0.2160252,0.05073144,0.04939548
2023-10-24 11:01:22.516000000,0.1489736,-0.003352799,0.004829902,-0.006999074,-0.01219422,0.009564364,-0.002325092,0.0007951148,0.007575104,0.000237152,5.474850000000003e-05,0.0002056059999999,0.2160003,0.05075546,0.0495133
2023-10-24 11:01:22.530999808,0.1488896,-0.0034803,0.004851487,-0.009146056,-0.01317716,0.009840932,-0.002073028,0.001061442,0.007549841,0.0002520639999999,0.0002663271999999,-2.5263000000000195e-05,0.2159892,0.05084027,0.04960425
2023-10-24 11:01:22.545000192,0.1489126,-0.003603946,0.004901232,-0.004879094,-0.01301407,0.01084723,-0.00167816,0.0007905553,0.007576735,0.000394868,-0.0002708866999999,2.68940000000004e-05,0.2159865,0.05090749,0.04969563
2023-10-24 11:01:22.558000128,0.1488394,-0.003741104,0.004894895,-0.007068317,-0.0160613,0.01164833,-0.001480301,0.001027456,0.007603348,0.0001978589999999,0.0002369006999999,2.6612999999999984e-05,0.2159737,0.0509432,0.04980483
2023-10-24 11:01:22.572000000,0.1489446,-0.003918923,0.004921462,0.0003612721,-0.01650025,0.01055779,-0.001399227,0.0007681116,0.007566051,8.107399999999999e-05,-0.0002593443999999,-3.729700000000037e-05,0.2159556,0.05094969,0.04991847
2023-10-24 11:01:22.585999872,0.1488894,-0.004046936,0.004858777,-0.002879208,-0.01747372,0.006447693,-0.001498532,0.001033671,0.007542931,-9.930499999999984e-05,0.0002655593999999,-2.311999999999973e-05,0.2159314,0.05095408,0.05002221
2023-10-24 11:01:22.600000000,0.148888,-0.00415488,0.004859802,-0.002856705,-0.01644131,0.00618694,-0.001872188,0.0009587575,0.007332323,-0.000373656,-7.491349999999986e-05,-0.000210608,0.2158968,0.050905,0.05008535
2023-10-24 11:01:22.614000128,0.1489031,-0.004158199,0.004885467,-0.001645085,-0.01001239,0.005641075,-0.002060675,0.001208918,0.007181241,-0.0001884869999999,0.0002501605,-0.000151082,0.2158632,0.05086765,0.05014095
2023-10-24 11:01:22.628999936,0.1489841,-0.004184056,0.004834347,0.002604145,-0.008839198,0.001973207,-0.002419378,0.00143791,0.007037132,-0.0003587029999999,0.0002289919999999,-0.0001441089999999,0.2158208,0.0508816,0.05023275
2023-10-24 11:01:22.642999808,0.1489906,-0.004126776,0.004863221,0.001689479,-0.002358528,0.001446105,-0.00251374,0.001681601,0.006980876,-9.436200000000018e-05,0.000243691,-5.625600000000019e-05,0.2157838,0.05091181,0.05032437
2023-10-24 11:01:22.656000000,0.1490939,-0.004100464,0.00495072,0.006069853,0.001682264,0.004759043,-0.00269093,0.001364345,0.006925419,-0.0001771899999999,-0.0003172559999999,-5.545699999999921e-05,0.2157428,0.05091537,0.05041284
2023-10-24 11:01:22.670000128,0.1491861,-0.004036091,0.004975502,0.009309925,0.004436107,0.00290661,-0.002502931,0.001347816,0.007212854,0.0001879989999999,-1.6529000000000153e-05,0.0002874349999999,0.2157142,0.05091228,0.05050635
2023-10-24 11:01:22.684999936,0.1492016,-0.004040975,0.005037492,0.007177683,0.003719449,0.004224178,-0.002414008,0.001387159,0.007282184,8.892299999999987e-05,3.934300000000006e-05,6.932999999999939e-05,0.215684,0.05091646,0.05060092
2023-10-24 11:01:22.698999808,0.1491448,-0.004036024,0.00514511,0.00191079,0.004641556,0.007378443,-0.002366156,0.001074753,0.007271138,4.785200000000014e-05,-0.000312406,-1.10459999999998e-05,0.2156538,0.05093173,0.05070106
2023-10-24 11:01:22.712000000,0.1489512,-0.003995296,0.005134435,-0.008747158,0.005152734,0.004112561,-0.002289149,0.000667485,0.007117113,7.700700000000003e-05,-0.0004072679999999,-0.0001540249999999,0.2156233,0.05093008,0.05079407
2023-10-24 11:01:22.724999936,0.1488532,-0.004010614,0.005131098,-0.01093278,0.002879487,0.003625609,-0.002287869,0.0002479897,0.006917797,1.279999999999771e-06,-0.0004194953,-0.000199316,0.2156045,0.05089672,0.05087385
2023-10-24 11:01:22.737999872,0.1487567,-0.004074518,0.005170391,-0.01204874,7.288357e-05,0.005457316,-0.002217676,-6.154797e-05,0.006700236,7.019300000000008e-05,-0.00030953767,-0.0002175609999999,0.2155925,0.05085792,0.05094745
2023-10-24 11:01:22.753999872,0.1487829,-0.004130382,0.005118318,-0.006843603,-0.003175585,0.0017927,-0.002017168,-0.0001642742,0.006815963,0.0002005079999999,-0.00010272623,0.000115727,0.2155772,0.05082945,0.05103781
2023-10-24 11:01:22.768999936,0.1489742,-0.004256289,0.00507072,0.004720301,-0.00889665,0.001956465,-0.00202083,6.151204e-05,0.007176832,-3.6619999999997614e-06,0.00022578624,0.0003608689999999,0.2155486,0.05083174,0.05115417
2023-10-24 11:01:22.780999936,0.149245,-0.00427372,0.005077298,0.01754159,-0.00689542,0.002344021,-0.00155923,0.0008525826,0.007748969,0.0004615999999999,0.00079107056,0.0005721369999999,0.2155394,0.05086476,0.05127509
2023-10-24 11:01:22.795000064,0.1494516,-0.004344158,0.005359026,0.02083856,-0.005914297,0.01085686,-0.001212901,0.001513217,0.008108693,0.000346329,0.0006606344,0.000359724,0.2155461,0.05093583,0.05137683
2023-10-24 11:01:22.808000000,0.149304,-0.004514582,0.005482336,0.01246108,-0.003854172,0.01817336,-0.000978981,0.0015592,0.008201716,0.0002339199999999,4.598299999999988e-05,9.302299999999936e-05,0.215557,0.05098794,0.05147264
2023-10-24 11:01:22.821000192,0.14914,-0.00462433,0.00550139,-0.0003529597,-0.007116279,0.02142674,-0.001015092,0.001324957,0.008061256,-3.611099999999991e-05,-0.0002342429999999,-0.00014046,0.2155549,0.05101584,0.05156889
2023-10-24 11:01:22.836000000,0.1489589,-0.004880909,0.005568791,-0.01000934,-0.008942916,0.01765919,-0.001111717,0.001312019,0.007822664,-9.662499999999992e-05,-1.29380000000001e-05,-0.0002385919999999,0.2155376,0.05104286,0.05168692
2023-10-24 11:01:22.851000064,0.148822,-0.004891276,0.005583044,-0.01539474,-0.009078496,0.01228025,-0.001210474,0.001301128,0.007387095,-9.87570000000001e-05,-1.0891000000000067e-05,-0.000435569,0.2155216,0.05106523,0.05178134
2023-10-24 11:01:22.865999872,0.1487944,-0.005002368,0.00551023,-0.01652052,-0.01137812,0.0117882,-0.00129618,0.001376798,0.007007525,-8.570600000000006e-05,7.567000000000012e-05,-0.00037957,0.2155385,0.05110223,0.05189431
2023-10-24 11:01:22.880000000,0.1486447,-0.00517866,0.005644218,-0.01446872,-0.01376033,0.01124874,-0.001291415,0.001865805,0.006702921,4.765000000000108e-06,0.0004890069999999,-0.000304604,0.2155579,0.05116877,0.05200709
2023-10-24 11:01:22.892999936,0.1487887,-0.005218614,0.005542235,-0.002783807,-0.01358364,0.008774995,-0.001280076,0.002279189,0.006516001,1.1338999999999967e-05,0.000413384,-0.0001869199999999,0.2155516,0.05120923,0.05210128
2023-10-24 11:01:22.905999872,0.1489715,-0.005347494,0.005533448,0.007802959,-0.01517584,0.007868225,-0.001427779,0.002472732,0.006086664,-0.0001477029999999,0.000193543,-0.000429337,0.2155281,0.05125052,0.05218291
2023-10-24 11:01:22.920000000,0.1490766,-0.005435787,0.005516793,0.01203127,-0.01555774,0.006774649,-0.001583294,0.002602003,0.005790895,-0.000155515,0.0001292709999999,-0.000295769,0.2155016,0.05129507,0.05227191
2023-10-24 11:01:22.935000064,0.1491734,-0.005454052,0.005572051,0.01226677,-0.008315598,0.009340956,-0.00166763,0.002257137,0.005540011,-8.433599999999996e-05,-0.0003448659999999,-0.0002508839999999,0.2154664,0.05134593,0.0523871
2023-10-24 11:01:22.947000064,0.1492515,-0.005399279,0.005571449,0.01122197,-0.004439899,0.002871374,-0.001997937,0.002033952,0.005311516,-0.0003303069999999,-0.000223185,-0.000228495,0.2154209,0.05138211,0.05249424
2023-10-24 11:01:22.961999872,0.149406,-0.005329605,0.00563679,0.01564357,0.001122215,0.003568748,-0.00244945,0.002121976,0.004988296,-0.000451513,8.802399999999991e-05,-0.0003232199999999,0.2153744,0.05142054,0.05255755
2023-10-24 11:01:22.976000000,0.1497122,-0.005079679,0.005592701,0.02319296,0.006577061,-0.0001718885,-0.002594047,0.002306682,0.004882122,-0.0001445969999999,0.000184706,-0.0001061739999999,0.2153355,0.05145354,0.05260726
2023-10-24 11:01:22.990000128,0.1497207,-0.004993558,0.005579451,0.02430368,0.01064561,-0.005646064,-0.002745862,0.002511512,0.004864717,-0.000151815,0.00020483,-1.740499999999985e-05,0.2152854,0.05146844,0.05268554
2023-10-24 11:01:23.003000064,0.1501015,-0.004793823,0.005633832,0.02335916,0.01631805,-0.009299171,-0.00272624,0.002685447,0.004876707,1.9621999999999955e-05,0.000173935,1.1989999999999916e-05,0.2152309,0.05146019,0.05277103
2023-10-24 11:01:23.016999936,0.1503091,-0.004521202,0.005848018,0.02785299,0.0226682,-0.005499141,-0.002886802,0.002847123,0.004784915,-0.0001605619999999,0.0001616759999999,-9.179200000000026e-05,0.2151698,0.05146137,0.05284786
2023-10-24 11:01:23.030999808,0.1505373,-0.004284028,0.006220383,0.03040545,0.03175323,0.008649042,-0.002671303,0.003203023,0.004756274,0.000215499,0.0003559,-2.8641000000000257e-05,0.2151392,0.05153761,0.052894
2023-10-24 11:01:23.045000192,0.1506298,-0.004197665,0.006265662,0.02717571,0.03005971,0.01024616,-0.0024999,0.00339027,0.004730196,0.0001714029999999,0.0001872469999999,-2.607799999999969e-05,0.2151084,0.05159295,0.05295326
2023-10-24 11:01:23.058000128,0.1505396,-0.004084207,0.006211181,0.01750863,0.02900326,0.005179845,-0.002099056,0.002875841,0.004869028,0.000400844,-0.0005144289999999,0.000138832,0.2151139,0.05160977,0.05303225
2023-10-24 11:01:23.072000000,0.1502845,-0.003959123,0.006215584,0.002494422,0.02729775,-0.002935254,-0.001761291,0.0016697,0.004679392,0.000337765,-0.001206141,-0.0001896359999999,0.2151407,0.05159299,0.05310701
2023-10-24 11:01:23.085999872,0.1499511,-0.003660575,0.006392135,-0.01668537,0.02531455,9.023984e-05,-0.001816105,0.001055376,0.004429699,-5.481400000000004e-05,-0.000614324,-0.000249693,0.2151444,0.05159422,0.05315861
2023-10-24 11:01:23.100000000,0.1497983,-0.003611702,0.006474754,-0.01979653,0.02774296,0.0006227565,-0.001494929,0.0004185024,0.004395925,0.0003211759999999,-0.0006368736,-3.377399999999944e-05,0.2151316,0.05158617,0.05321438
2023-10-24 11:01:23.115000064,0.1498539,-0.003566094,0.006416676,-0.01685705,0.01912877,0.001688236,-0.001679069,0.0004592417,0.004274448,-0.0001841399999999,4.0739300000000025e-05,-0.000121477,0.2151028,0.05158843,0.05326821
2023-10-24 11:01:23.127000064,0.1498514,-0.003488146,0.006457198,-0.01049104,0.01817044,0.002944747,-0.001518608,0.0009039075,0.004244526,0.0001604609999999,0.0004446657999999,-2.992199999999993e-05,0.215068,0.05160455,0.05332816
2023-10-24 11:01:23.141999872,0.1498978,-0.003376167,0.006548905,3.200136e-05,0.01472506,-0.0007206591,-0.00165109,0.001042627,0.004174412,-0.0001324819999999,0.0001387195,-7.011400000000046e-05,0.2150232,0.0516179,0.05338572
2023-10-24 11:01:23.155000064,0.1498546,-0.003175508,0.006523564,-0.002031702,0.01784765,-0.005907266,-0.00151884,0.0007304267,0.00403186,0.00013225,-0.0003122003,-0.0001425519999999,0.214998,0.05161326,0.05342894
2023-10-24 11:01:23.170000128,0.1497557,-0.003059067,0.006463516,-0.006363912,0.01588065,-0.009754502,-0.001929274,-0.0002150672,0.003969559,-0.0004104339999999,-0.0009454939,-6.230099999999985e-05,0.2149595,0.05158039,0.05347503
2023-10-24 11:01:23.184000000,0.1494446,-0.00290706,0.006665206,-0.01586656,0.01798266,-0.01127233,-0.002175012,-0.000823022,0.00380803,-0.000245738,-0.0006079548,-0.000161529,0.2149244,0.05156276,0.05351287
2023-10-24 11:01:23.196999936,0.149495,-0.002780333,0.006503337,-0.01372122,0.01870048,-0.008184988,-0.00256497,-0.001557212,0.00380609,-0.000389958,-0.00073419,-1.940000000000188e-06,0.2148998,0.05148857,0.05359957
2023-10-24 11:01:23.211000064,0.149324,-0.002547666,0.006559374,-0.01678815,0.02292453,-0.009233332,-0.002625422,-0.001866879,0.003818547,-6.04519999999999e-05,-0.000309667,1.2457000000000006e-05,0.2148836,0.05143365,0.05367965
2023-10-24 11:01:23.226000128,0.1491278,-0.002354279,0.006555036,-0.01464037,0.02363452,-0.01052751,-0.00273122,-0.002615067,0.003601492,-0.0001057979999999,-0.0007481879999999,-0.0002170549999999,0.2148548,0.05136269,0.05373553
2023-10-24 11:01:23.239000064,0.1490527,-0.002072573,0.006542837,-0.01777003,0.02578708,-0.01106031,-0.002756067,-0.002642442,0.003300983,-2.484700000000015e-05,-2.7375000000000056e-05,-0.000300509,0.2148154,0.05132179,0.05375514
2023-10-24 11:01:23.252999936,0.1488997,-0.002035201,0.006628468,-0.01568298,0.02395351,-0.005087869,-0.003249013,-0.002649449,0.003054097,-0.0004929459999999,-7.006999999999847e-06,-0.000246886,0.2147681,0.05128829,0.05379897
2023-10-24 11:01:23.267000064,0.1487767,-0.00180544,0.006634357,-0.01347704,0.02672562,-0.006906531,-0.002914633,-0.002047217,0.003048361,0.00033438,0.0006022319999999,-5.736000000000109e-06,0.2147893,0.051271,0.05388699
2023-10-24 11:01:23.280999936,0.1488676,-0.001671702,0.006837388,-0.0113478,0.02616123,-0.00459168,-0.002946836,-0.001524229,0.002979201,-3.220300000000018e-05,0.000522988,-6.915999999999997e-05,0.214802,0.05127216,0.05397602
2023-10-24 11:01:23.295000064,0.1486062,-0.001467794,0.006750914,-0.01566621,0.02447842,-0.003025988,-0.00287724,-0.001497588,0.002695767,6.95959999999999e-05,2.664099999999999e-05,-0.0002834339999999,0.2147718,0.05124448,0.05400559
2023-10-24 11:01:23.308000000,0.1482964,-0.0013992,0.006775395,-0.02323922,0.01978684,-0.00508957,-0.002669254,-0.001592242,0.002224611,0.000207986,-9.4654e-05,-0.0004711559999999,0.2147393,0.05122006,0.05401981
2023-10-24 11:01:23.321000192,0.1481036,-0.001418587,0.006816811,-0.0267054,0.01007613,-0.004828,-0.002833397,-0.001820103,0.00148627,-0.000164143,-0.000227861,-0.000738341,0.2147054,0.05117305,0.05403136
2023-10-24 11:01:23.336000000,0.1479361,-0.001422662,0.006683125,-0.03425508,0.006404061,-0.007169398,-0.002642624,-0.001845887,0.0007109882,0.0001907729999999,-2.578400000000005e-05,-0.0007752818,0.2147071,0.0510783,0.05405306
2023-10-24 11:01:23.351000064,0.147615,-0.001429278,0.006548082,-0.03648126,0.002841828,-0.008463617,-0.002509518,-0.00265117,-0.0001536835,0.000133106,-0.000805283,-0.0008646717,0.2147086,0.05095261,0.05405945
2023-10-24 11:01:23.364000000,0.1473059,-0.001458619,0.006641258,-0.03759183,0.00134059,-0.005879811,-0.002823259,-0.003846156,-0.001470339,-0.0003137409999999,-0.0011949859999999,-0.0013166555,0.2146602,0.0508736,0.05400657
2023-10-24 11:01:23.378000128,0.1470841,-0.001319267,0.006552015,-0.03743809,0.007005748,-0.005091946,-0.003216477,-0.004463293,-0.002453912,-0.000393218,-0.000617137,-0.000983573,0.2146051,0.05078687,0.0539402
2023-10-24 11:01:23.392000000,0.1469868,-0.001166657,0.006732516,-0.03190847,0.01437157,-0.005841414,-0.003802457,-0.004606765,-0.003519234,-0.0005859799999999,-0.0001434719999999,-0.001065322,0.2145618,0.05072637,0.05391251
2023-10-24 11:01:23.405999872,0.1467172,-0.0008043498,0.006566691,-0.03266676,0.025497,-0.009683732,-0.004213321,-0.004001338,-0.00426641,-0.0004108639999999,0.0006054269999999,-0.000747176,0.214532,0.05066831,0.05390953
2023-10-24 11:01:23.418999808,0.1464675,-0.00047528,0.006764134,-0.02815295,0.03468537,-0.007543603,-0.004653983,-0.003930248,-0.004937835,-0.000440662,7.109000000000022e-05,-0.0006714249999999,0.2144828,0.05062208,0.0538673
2023-10-24 11:01:23.433000192,0.1462525,-0.0002106056,0.006957139,-0.03022685,0.036552,-0.004701899,-0.005278972,-0.003414881,-0.005596966,-0.0006249889999999,0.000515367,-0.000659131,0.2143947,0.05059725,0.05375468
2023-10-24 11:01:23.447000064,0.1460944,4.909188e-05,0.007071179,-0.02703602,0.03772194,0.0005021809,-0.005535624,-0.00327239,-0.006117145,-0.000256652,0.0001424909999999,-0.000520179,0.2143126,0.05055976,0.05363975
2023-10-24 11:01:23.460999936,0.1460949,0.0002985559,0.006872945,-0.02282441,0.03353542,-0.01167783,-0.00542927,-0.002880439,-0.006319964,0.000106354,0.000391951,-0.0002028189999999,0.2142949,0.05050337,0.05357338
2023-10-24 11:01:23.476000000,0.1459707,0.0004660562,0.006780199,-0.01658639,0.02693309,-0.01555522,-0.005482594,-0.002381157,-0.006170492,-5.332400000000043e-05,0.0004992819999999,0.000149472,0.2142762,0.05046248,0.0535253
2023-10-24 11:01:23.492000000,0.1462911,0.0004805438,0.006840537,-0.001739619,0.02344139,-0.01909634,-0.005129161,-0.001780985,-0.00583158,0.000353433,0.000600172,0.0003389119999999,0.2142363,0.05044987,0.05346619
2023-10-24 11:01:23.506000128,0.1465061,0.0005356669,0.006879683,0.01284729,0.01623736,-0.006331848,-0.004840218,-0.0009814028,-0.005582177,0.0002889429999999,0.0007995821999999,0.000249403,0.2141754,0.05045799,0.05339009
2023-10-24 11:01:23.517999872,0.14657,0.0004094057,0.006975736,0.01791509,0.009074693,0.0009112317,-0.004266378,-0.0004275066,-0.005205248,0.0005738399999999,0.0005538962,0.0003769289999999,0.2141352,0.05046968,0.05334856
2023-10-24 11:01:23.532999936,0.1466657,0.0004448108,0.007009587,0.01447462,0.001646244,0.00600871,-0.003691533,-0.0005284034,-0.004815064,0.000574845,-0.0001008968,0.000390184,0.2141142,0.05044675,0.05334818
2023-10-24 11:01:23.546000128,0.1465446,0.0002607442,0.006836409,0.00248275,-0.01168445,-0.0006736377,-0.003588843,-0.0009312151,-0.004500676,0.0001026899999999,-0.0004028117,0.0003143879999999,0.2140829,0.05039909,0.05336924
2023-10-24 11:01:23.560000000,0.14613,2.107397e-05,0.006715203,-0.01463664,-0.0163672,-0.003979506,-0.003418062,-0.002075336,-0.004544177,0.000170781,-0.0011441209,-4.350099999999961e-05,0.2140432,0.05033188,0.0533362
2023-10-24 11:01:23.572999936,0.1456238,-0.0001337938,0.006348159,-0.03285484,-0.02386459,-0.009901374,-0.003517642,-0.003749021,-0.004778169,-9.958000000000015e-05,-0.0016736849999999,-0.0002339919999999,0.2139897,0.05021653,0.05327803
2023-10-24 11:01:23.588000000,0.1451566,-0.0003117807,0.006172742,-0.04790133,-0.03044345,-0.01165073,-0.003709394,-0.005357679,-0.005134958,-0.0001917519999999,-0.0016086579999999,-0.000356789,0.2139274,0.05009698,0.05321383
2023-10-24 11:01:23.600000000,0.1448483,-0.0004220456,0.006044874,-0.04890809,-0.02883801,-0.0142356,-0.003554295,-0.005832168,-0.005146923,0.000155099,-0.000474489,-1.1965000000000066e-05,0.2138545,0.05001608,0.05316054
2023-10-24 11:01:23.614000128,0.1448784,-0.0006002039,0.006026052,-0.0382559,-0.02659052,-0.008160296,-0.003715285,-0.005053362,-0.005077314,-0.00016099,0.000778806,6.960899999999999e-05,0.2137726,0.04998292,0.05311137
2023-10-24 11:01:23.628999936,0.144994,-0.0005968288,0.006026991,-0.01783299,-0.0165983,-0.0006675899,-0.003523758,-0.00438252,-0.004901703,0.0001915269999999,0.0006708419999999,0.000175611,0.2137237,0.04994264,0.05304841
2023-10-24 11:01:23.642999808,0.1449304,-0.0005221181,0.005947267,-0.01020535,-0.01051846,-0.006510406,-0.003527444,-0.003660982,-0.00476299,-3.685999999999707e-06,0.0007215379999999,0.000138713,0.2136733,0.04990519,0.05298179
2023-10-24 11:01:23.655000064,0.14487,-0.0005299076,0.005959648,-0.01012067,-0.006669068,-0.004130823,-0.004060939,-0.003669819,-0.004838708,-0.000533495,-8.83699999999982e-06,-7.571799999999979e-05,0.2136136,0.04982764,0.05292079
2023-10-24 11:01:23.671000064,0.1446751,-0.0005179904,0.006175591,-0.01638783,0.0003411821,0.006283651,-0.004520789,-0.004136892,-0.005018467,-0.0004598499999999,-0.0004670729999999,-0.000179759,0.2135612,0.04972098,0.05285857
2023-10-24 11:01:23.684000000,0.1442082,-0.000493791,0.006182059,-0.02906654,0.003765223,0.005490694,-0.004633082,-0.004704231,-0.005187255,-0.000112293,-0.000567339,-0.0001687879999999,0.2135109,0.04960247,0.05279266
2023-10-24 11:01:23.697999872,0.1440107,-0.0004653372,0.006151871,-0.03433331,0.004514493,-0.001257681,-0.004756982,-0.004979876,-0.00545887,-0.0001238999999999,-0.000275645,-0.000271615,0.2134413,0.04952333,0.05270889
2023-10-24 11:01:23.710000128,0.1440232,-0.0001123846,0.005805199,-0.02787483,0.004754942,-0.01341274,-0.005086488,-0.00426073,-0.005516009,-0.000329506,0.000719146,-5.7138999999999454e-05,0.2133612,0.04945832,0.05261147
2023-10-24 11:01:23.724999936,0.1439858,-0.0001604147,0.006014728,-0.01291166,0.009219788,-0.006767139,-0.005556535,-0.003113656,-0.005601322,-0.0004700469999999,0.001147074,-8.531300000000006e-05,0.2132605,0.04946459,0.05256879
2023-10-24 11:01:23.739000064,0.1442939,-3.668666e-05,0.006091686,0.007370755,0.01255446,-0.004257116,-0.005779703,-0.001197727,-0.005217947,-0.000223168,0.0019159289999999,0.000383375,0.2131559,0.04951007,0.0525553
2023-10-24 11:01:23.752999936,0.144772,1.056865e-05,0.006190461,0.02324538,0.008791739,-0.004472362,-0.006168582,0.0004526967,-0.005010129,-0.0003888789999999,0.0016504237,0.0002078179999999,0.2130477,0.04956963,0.05252526
2023-10-24 11:01:23.767000064,0.1450702,0.000178162,0.00583329,0.0329178,0.0110179,-0.01266148,-0.00644956,0.001336489,-0.004636338,-0.000280978,0.0008837922999999,0.000373791,0.2129503,0.0495864,0.05246238
2023-10-24 11:01:23.782000128,0.1454073,0.0004909858,0.005834005,0.03944802,0.01505226,-0.01797218,-0.007068035,0.001344025,-0.004203612,-0.000618475,7.536000000000044e-06,0.000432726,0.2128365,0.04960313,0.05239393
2023-10-24 11:01:23.795000064,0.1455497,0.000694152,0.005755001,0.0364474,0.02188719,-0.02179171,-0.007371656,0.001164419,-0.003639495,-0.0003036209999999,-0.0001796059999999,0.0005641169999999,0.212743,0.04960318,0.05237933
2023-10-24 11:01:23.809999872,0.1457261,0.000926856,0.0055168,0.03652679,0.02402372,-0.02668286,-0.007612108,0.000609002,-0.003354305,-0.000240452,-0.000555417,0.0002851899999999,0.2126493,0.0495749,0.05236546
2023-10-24 11:01:23.824999936,0.1459679,0.001303773,0.005725234,0.03025137,0.03001369,-0.02045205,-0.007669365,-0.0001396403,-0.003034966,-5.7256999999999794e-05,-0.0007486423,0.000319339,0.2125497,0.0495616,0.05232123
2023-10-24 11:01:23.838000128,0.1461552,0.001545131,0.005685054,0.03127198,0.02970596,-0.0170729,-0.007927734,-0.000985308,-0.002751739,-0.000258369,-0.0008456677,0.000283227,0.2124324,0.04952325,0.05227445
2023-10-24 11:01:23.851000064,0.1463081,0.00168708,0.005462844,0.02704077,0.02830443,-0.02335655,-0.008199635,-0.0005935856,-0.002227203,-0.0002719009999999,0.0003917224,0.0005245359999999,0.2123134,0.0495216,0.05225367
2023-10-24 11:01:23.864999936,0.146531,0.002104308,0.005301234,0.03034735,0.02855287,-0.03106406,-0.008408273,-9.609805e-05,-0.001340126,-0.000208638,0.00049748755,0.000887077,0.2122018,0.0495951,0.05226117
2023-10-24 11:01:23.878000128,0.1467732,0.00236816,0.005141004,0.03144335,0.02468666,-0.03780564,-0.00871739,0.0003579523,-0.000297467,-0.0003091169999999,0.00045405035,0.001042659,0.2120824,0.04967371,0.05229588
2023-10-24 11:01:23.892999936,0.146858,0.002673589,0.00495025,0.02506012,0.02507024,-0.03684943,-0.008567397,0.0002830361,0.0005931702,0.000149993,-7.491620000000003e-05,0.0008906372,0.2119701,0.04968148,0.05231766
2023-10-24 11:01:23.907000064,0.1467052,0.002893835,0.004877701,0.01225476,0.02504368,-0.03366375,-0.008414702,-0.0001453605,0.001616076,0.0001526949999999,-0.0004283966,0.0010229058,0.2118569,0.04966225,0.05235329
2023-10-24 11:01:23.920000000,0.1465388,0.003156193,0.004638078,-0.0005502352,0.02321027,-0.03335884,-0.008156467,-0.0004681228,0.00234299,0.0002582349999999,-0.0003227623,0.000726914,0.2117507,0.04962782,0.05239715
2023-10-24 11:01:23.934000128,0.1461489,0.003253121,0.004714996,-0.01443227,0.02344767,-0.02916779,-0.007758007,-0.000948664,0.003183061,0.00039846,-0.0004805412,0.000840071,0.2116563,0.04959638,0.05247945
2023-10-24 11:01:23.947000064,0.1457718,0.0034406,0.004747633,-0.02830142,0.0275209,-0.02263427,-0.007303646,-0.001479007,0.003935194,0.000454361,-0.000530343,0.000752133,0.2115639,0.04955914,0.05256172
2023-10-24 11:01:23.961999872,0.1454952,0.003651053,0.004623194,-0.03483141,0.02447107,-0.01759879,-0.006937406,-0.002386041,0.004578479,0.0003662399999999,-0.000907034,0.0006432849999999,0.211481,0.049485,0.05263613
2023-10-24 11:01:23.976999936,0.1453054,0.003753942,0.004642743,-0.03699591,0.01987589,-0.01872713,-0.00646864,-0.002669681,0.005301925,0.0004687659999999,-0.0002836399999999,0.000723446,0.2114037,0.04943997,0.05272244
2023-10-24 11:01:23.989000192,0.1452072,0.003834344,0.004678715,-0.02855597,0.01946255,-0.01520381,-0.005736012,-0.00272594,0.006191137,0.0007326279999999,-5.625899999999991e-05,0.000889212,0.2113392,0.04940271,0.05282935
