time,rotate_x,rotate_y,rotate_z,angularVelocity_x,angularVelocity_y,angularVelocity_z,velocity_x,velocity_y,velocity_z,acceleration_x,acceleration_y,acceleration_z,position_x,position_y,position_z
2023-10-31 11:08:24.624000000,0.02757045,-0.01293311,-0.009440934,-0.3298276,0.1895299,0.009772776,-0.03208081,-0.03676127,-0.004488076,-0.03208081,-0.03676127,-0.004488076,-0.3368427,1.572179,-0.01832249
2023-10-31 11:08:24.632999936,0.04042356,-0.02704731,-0.005666669,-0.06491031,0.1509982,-0.01200169,-0.02884958,-0.008793496,0.02903253,-0.06093039,-0.045554766,0.024544454,-0.3423412,0.0002625631,-0.01568823
2023-10-31 11:08:24.641999872,0.04113069,-0.02765021,-0.005501086,-0.06107622,0.1441232,-0.01020997,-0.0278117,-0.009312849,0.03058424,-0.08874209,-0.0548676149999999,0.055128694,-0.3427483,-3.656372e-06,-0.01533337
2023-10-31 11:08:24.660999936,0.04223615,-0.0280647,-0.00502456,-0.0744328,0.1283466,-0.021601,-0.02525645,-0.01200151,0.03129682,-0.11399854,-0.066869125,0.086425514,-0.3427559,-0.0004585953,-0.0151199
2023-10-31 11:08:24.677999872,0.04378597,-0.02846044,-0.005586557,-0.09542488,0.1113078,-0.01758879,-0.02389061,-0.01321205,0.03033249,-0.13788915,-0.080081175,0.116758004,-0.343143,-0.0002956864,-0.01467244
2023-10-31 11:08:24.696999936,0.04307754,-0.0293752,-0.004933445,-0.0748014,0.1178379,-0.02029551,-0.02359897,-0.01084415,0.03162678,-0.1614881199999999,-0.090925325,0.148384784,-0.3434964,-0.0001210476,-0.01402563
2023-10-31 11:08:24.713999872,0.04220247,-0.03027371,-0.004819922,-0.03415787,0.1162694,-0.0200358,-0.02321228,-0.006959734,0.03415161,-0.1847004,-0.097885059,0.182536394,-0.3436953,-6.384659e-05,-0.01343557
2023-10-31 11:08:24.731000064,0.04178321,-0.03088197,-0.004624415,-0.00452457,0.1092451,-0.01897137,-0.02298437,-0.004923163,0.03642605,-0.20768477,-0.1028082219999999,0.218962444,-0.3439787,-0.0002896549,-0.01297731
2023-10-31 11:08:24.748000000,0.04205917,-0.03134874,-0.004305657,-0.003212877,0.1008805,-0.01479902,-0.02246017,-0.005291947,0.03775688,-0.23014494,-0.108100169,0.256719324,-0.3443637,-0.0004597455,-0.01251964
2023-10-31 11:08:24.765000192,0.04259544,-0.03139091,-0.003889501,-0.01286856,0.08706309,-0.02761014,-0.02151874,-0.005834667,0.03810247,-0.25166368,-0.113934836,0.294821794,-0.3446993,-0.00050348,-0.01202889
2023-10-31 11:08:24.782000128,0.04213106,-0.0312295,-0.003757188,-0.002714074,0.06016073,-0.02935721,-0.02142553,-0.004506206,0.0385386,-0.27308921,-0.118441042,0.333360394,-0.3450701,-0.0004208341,-0.01146531
2023-10-31 11:08:24.798000128,0.04126302,-0.03147143,-0.003100049,0.02871632,0.04883286,-0.03533422,-0.02199316,-0.001398423,0.03833014,-0.29508237,-0.1198394649999999,0.371690534,-0.3454156,-0.0003832491,-0.01102261
2023-10-31 11:08:24.813999872,0.04077908,-0.03169215,-0.002433764,0.05097416,0.04219987,-0.05216391,-0.02252809,0.0007263437,0.03671056,-0.31761046,-0.1191131212999999,0.408401094,-0.3457204,-0.0003043758,-0.01063553
2023-10-31 11:08:24.829999872,0.04036005,-0.0315755,-0.001805339,0.06253629,0.03203692,-0.06136639,-0.02276762,0.002337943,0.03301243,-0.34037808,-0.1167751782999999,0.441413524,-0.3460858,-0.0002019764,-0.01035775
2023-10-31 11:08:24.844999936,0.04013716,-0.03117755,-0.001733785,0.05743935,0.01188917,-0.05868867,-0.02258138,0.004096891,0.02798812,-0.36295946,-0.1126782872999999,0.469401644,-0.3463654,-6.693555e-05,-0.01011699
2023-10-31 11:08:24.860000000,0.0392931,-0.03051406,-0.001886191,0.06972913,-0.02111849,-0.03372368,-0.02253083,0.007641762,0.02303445,-0.38549029,-0.1050365252999999,0.492436094,-0.3467192,0.0002707487,-0.009881928
2023-10-31 11:08:24.875000064,0.03799699,-0.02974883,-0.002242699,0.09750506,-0.05497457,-0.003393229,-0.02260087,0.01344738,0.01876529,-0.40809116,-0.0915891453,0.511201384,-0.3470911,0.0006562332,-0.009660095
2023-10-31 11:08:24.888999936,0.03657066,-0.02908415,-0.002348587,0.1326293,-0.07349302,0.004470311,-0.02203801,0.01842048,0.01471612,-0.43012917,-0.0731686652999999,0.525917504,-0.3474198,0.0009967487,-0.009551699
2023-10-31 11:08:24.904000000,0.03538107,-0.02826843,-0.002186399,0.1501204,-0.08922697,-0.0007905512,-0.02043463,0.02211542,0.009959389,-0.4505638,-0.0510532452999999,0.5358768930000001,-0.3476454,0.001325996,-0.009493973
2023-10-31 11:08:24.918999808,0.03410703,-0.0272896,-0.002095209,0.1664369,-0.1064562,-0.005764139,-0.01862532,0.02455601,0.005669764,-0.46918912,-0.0264972352999999,0.541546657,-0.3478433,0.001746652,-0.009408476
2023-10-31 11:08:24.933000192,0.03253369,-0.02585101,-0.002062689,0.1829054,-0.1343814,-0.004289081,-0.01670978,0.02691863,0.002623745,-0.4858989,0.0004213947,0.544170402,-0.3480195,0.002193311,-0.00933654
2023-10-31 11:08:24.947000064,0.03044795,-0.02408838,-0.00210289,0.2152966,-0.1744796,-0.003553923,-0.01452868,0.02874326,0.00124177,-0.50042758,0.0291646547,0.545412172,-0.3480988,0.002635936,-0.00916071
2023-10-31 11:08:24.960999936,0.02908382,-0.02202091,-0.002349424,0.223297,-0.2139043,0.005366777,-0.01239439,0.02858014,-0.00121843,-0.51282197,0.0577447947,0.544193742,-0.348237,0.003016107,-0.009132256
2023-10-31 11:08:24.974999808,0.02798168,-0.02025768,-0.002429239,0.2026667,-0.2393198,0.00460471,-0.01122888,0.02502676,-0.005258989,-0.52405085,0.0827715547,0.538934753,-0.3483578,0.003124792,-0.009257232
2023-10-31 11:08:24.990000128,0.02772602,-0.01850441,-0.002649797,0.1560253,-0.2563027,0.009203154,-0.01012487,0.01820873,-0.01119946,-0.5341757199999999,0.1009802847,0.527735293,-0.3484435,0.003203223,-0.009466875
2023-10-31 11:08:25.004000000,0.0279002,-0.01640153,-0.002932941,0.09400893,-0.2663402,0.006637601,-0.009383786,0.01129764,-0.0175445,-0.5435595059999999,0.1122779247,0.510190793,-0.3486357,0.003242903,-0.009723639
2023-10-31 11:08:25.016999936,0.027813,-0.01467553,-0.003079013,0.05044345,-0.2637206,0.004529666,-0.009302137,0.006222731,-0.02283703,-0.552861643,0.1185006557,0.487353763,-0.3488289,0.00324441,-0.01004383
2023-10-31 11:08:25.032000000,0.02770949,-0.0131354,-0.003085231,0.03271488,-0.2543582,0.001937929,-0.01013613,0.003008728,-0.02727858,-0.562997773,0.1215093837,0.460075183,-0.3490318,0.003279978,-0.01039129
2023-10-31 11:08:25.046000128,0.02764064,-0.01165548,-0.003374078,0.02512519,-0.2437667,0.004281895,-0.01169887,0.001425075,-0.03154718,-0.574696643,0.1229344587,0.428528003,-0.3492215,0.003321605,-0.01083693
2023-10-31 11:08:25.059000064,0.02761161,-0.01000679,-0.003762806,0.01499687,-0.2330926,0.01611881,-0.01292765,-0.0003351001,-0.03647608,-0.587624293,0.1225993586,0.392051923,-0.3494574,0.003281598,-0.01138653
2023-10-31 11:08:25.073999872,0.02805355,-0.008738816,-0.004184785,-0.01172635,-0.2206978,0.01947288,-0.01366378,-0.002466186,-0.04251854,-0.601288073,0.1201331726,0.349533383,-0.3496208,0.003287085,-0.01204261
2023-10-31 11:08:25.088000000,0.02897223,-0.007411748,-0.004469921,-0.05216728,-0.2108849,0.02333008,-0.01384603,-0.006152631,-0.04980588,-0.6151341029999999,0.1139805416,0.299727503,-0.3497959,0.003241061,-0.01280909
2023-10-31 11:08:25.101000192,0.03001259,-0.006101072,-0.004853763,-0.08843824,-0.2020784,0.02958583,-0.013637,-0.00967385,-0.05746567,-0.6287711029999999,0.1043066916,0.242261833,-0.3499801,0.003172639,-0.01367399
2023-10-31 11:08:25.115000064,0.0306142,-0.005068749,-0.005004176,-0.1028994,-0.1865271,0.02739516,-0.01294195,-0.01011549,-0.06490882,-0.6417130529999999,0.0941912016,0.177353013,-0.350133,0.003114821,-0.01465267
2023-10-31 11:08:25.128999936,0.03082401,-0.004138291,-0.005216094,-0.08644389,-0.1700949,0.01844757,-0.01230382,-0.007385416,-0.07018688,-0.6540168729999999,0.0868057855999999,0.107166133,-0.3502786,0.003170744,-0.01564805
2023-10-31 11:08:25.144000000,0.0303171,-0.003057003,-0.005857851,-0.0388048,-0.1607076,0.03450013,-0.01247675,-0.001428067,-0.07392152,-0.6664936229999999,0.0853777185999999,0.033244613,-0.3505076,0.003369717,-0.01669433
2023-10-31 11:08:25.157999872,0.02955915,-0.002017289,-0.007227583,0.01331648,-0.1651023,0.07932952,-0.01330978,0.005023044,-0.07680485,-0.679803403,0.0904007625999999,-0.0435602369999999,-0.3506927,0.003606824,-0.01779293
2023-10-31 11:08:25.172000000,0.02893652,-0.000729531,-0.008487895,0.04558718,-0.1752766,0.1144819,-0.01439255,0.009233147,-0.08107213,-0.6941959529999999,0.0996339095999999,-0.1246323669999999,-0.3509079,0.003760192,-0.01900838
2023-10-31 11:08:25.181999872,0.02909508,0.0006667972,-0.00944098,0.03794844,-0.1833655,0.1255741,-0.01453565,0.009833643,-0.08584024,-0.7087316029999999,0.1094675525999999,-0.2104726069999999,-0.3511178,0.003939517,-0.02032933
2023-10-31 11:08:25.196000000,0.02960382,0.001504093,-0.009253177,0.00240133,-0.1724744,0.08486503,-0.013542,0.009628749,-0.09342654,-0.722273603,0.1190963016,-0.3038991469999999,-0.3512166,0.004048721,-0.021747
2023-10-31 11:08:25.210000128,0.02995457,0.002179444,-0.008804233,-0.01800844,-0.1471903,0.03391248,-0.01173127,0.01019586,-0.09944291,-0.734004873,0.1292921615999999,-0.4033420569999999,-0.3513567,0.004329428,-0.02316387
2023-10-31 11:08:25.224999936,0.02942095,0.003045022,-0.008985962,-0.005048219,-0.1336522,0.01121789,-0.01052058,0.0139476,-0.102757,-0.744525453,0.1432397616,-0.5060990569999999,-0.351505,0.004734176,-0.02455866
2023-10-31 11:08:25.237999872,0.02840912,0.004154682,-0.009854875,0.03929699,-0.1429943,0.03094462,-0.009064544,0.01928928,-0.1036578,-0.753589997,0.1625290415999999,-0.6097568569999999,-0.3515465,0.005218639,-0.02587268
2023-10-31 11:08:25.252000000,0.02711318,0.005717903,-0.01084601,0.08771407,-0.1678005,0.06179475,-0.007706802,0.02468105,-0.1029618,-0.7612967989999999,0.1872100916,-0.7127186569999999,-0.3516278,0.005726332,-0.02715797
2023-10-31 11:08:25.266000128,0.0255269,0.007274777,-0.01219798,0.1339543,-0.1973232,0.09975404,-0.006012719,0.02789322,-0.1017793,-0.7673095179999999,0.2151033115999999,-0.8144979569999999,-0.3515866,0.006177777,-0.02851825
2023-10-31 11:08:25.279000064,0.02451294,0.008841455,-0.01293778,0.1536171,-0.2181664,0.1082937,-0.003934991,0.02768549,-0.1021457,-0.771244509,0.2427888016,-0.916643657,-0.3514839,0.006508227,-0.02992457
2023-10-31 11:08:25.292999936,0.02385668,0.01048541,-0.01324928,0.1346971,-0.2255424,0.08686371,-0.001287777,0.02436029,-0.1034022,-0.772532286,0.2671490916,-1.020045857,-0.3514113,0.006661315,-0.03136054
2023-10-31 11:08:25.306999808,0.02371895,0.01182953,-0.01329156,0.09755434,-0.219919,0.05318277,0.001904584,0.01997057,-0.1050956,-0.770627702,0.2871196616,-1.125141457,-0.3512803,0.006841436,-0.03276941
2023-10-31 11:08:25.321000192,0.0235894,0.01340893,-0.01360004,0.06784102,-0.2254036,0.03918012,0.004456338,0.01649501,-0.1063295,-0.766171364,0.3036146716,-1.231470957,-0.3511278,0.007093387,-0.03410796
2023-10-31 11:08:25.335000064,0.02301392,0.01521367,-0.01443889,0.05903875,-0.2376645,0.05146034,0.006592859,0.01499435,-0.1058529,-0.759578505,0.3186090216,-1.337323857,-0.350936,0.007340279,-0.03542777
2023-10-31 11:08:25.348999936,0.02210479,0.01721045,-0.01538657,0.07523058,-0.2533742,0.07202575,0.008049581,0.01508315,-0.1036511,-0.751528924,0.3336921716,-1.440974957,-0.3507552,0.007643229,-0.03660776
2023-10-31 11:08:25.362999808,0.02088082,0.01931149,-0.01652235,0.09973717,-0.2728789,0.09167786,0.009283122,0.01548379,-0.1000354,-0.742245802,0.3491759616,-1.5410103569999998,-0.3505808,0.007857623,-0.03778258
2023-10-31 11:08:25.377000192,0.01999347,0.02159876,-0.0174536,0.1089642,-0.294561,0.1034851,0.01054193,0.01506253,-0.09637784,-0.731703872,0.3642384916,-1.6373881969999995,-0.3503953,0.008053529,-0.0388791
2023-10-31 11:08:25.391000064,0.01950701,0.02373347,-0.01771925,0.1046551,-0.3087215,0.08386899,0.01166471,0.01288833,-0.09275715,-0.720039162,0.3771268216,-1.7301453469999997,-0.3502092,0.008147574,-0.03996588
2023-10-31 11:08:25.404999936,0.01928966,0.02564266,-0.01760553,0.08080714,-0.29985,0.04673091,0.01314382,0.01034568,-0.08972535,-0.7068953419999999,0.3874725016,-1.819870697,-0.350033,0.00817341,-0.04106013
2023-10-31 11:08:25.417999872,0.0190003,0.02733696,-0.01743155,0.05587301,-0.2856974,0.01141216,0.0138306,0.008558629,-0.08625326,-0.6930647419999999,0.3960311306,-1.906123957,-0.3498483,0.008224783,-0.04206875
2023-10-31 11:08:25.432000000,0.01848544,0.02919179,-0.0177017,0.05500712,-0.2762243,0.008853518,0.0142415,0.008750383,-0.0818345,-0.6788232419999999,0.4047815136,-1.987958457,-0.3496663,0.008469898,-0.0429276
2023-10-31 11:08:25.446000128,0.01763027,0.03131527,-0.01856541,0.06685437,-0.282103,0.02663222,0.01453668,0.01132778,-0.07657528,-0.6642865619999999,0.4161092936,-2.064533737,-0.3494509,0.008773167,-0.04371939
2023-10-31 11:08:25.460999936,0.01677396,0.03360191,-0.01947556,0.08563995,-0.3022813,0.05350018,0.01455004,0.01422568,-0.07142749,-0.6497365219999999,0.4303349736,-2.135961227,-0.3493045,0.009154079,-0.04437481
2023-10-31 11:08:25.473999872,0.01584876,0.03588483,-0.02022236,0.09928287,-0.3159276,0.06726176,0.01470381,0.01663023,-0.0661878,-0.6350327119999999,0.4469652036000001,-2.2021490269999995,-0.3491901,0.009490687,-0.04498166
2023-10-31 11:08:25.488000000,0.01514301,0.0379245,-0.02050836,0.1033782,-0.3152809,0.05645074,0.01501697,0.01781718,-0.06092207,-0.6200157419999999,0.4647823836,-2.263071097,-0.348991,0.009791684,-0.04553528
2023-10-31 11:08:25.502000128,0.01430045,0.03975338,-0.02060238,0.09742475,-0.3051338,0.03249427,0.0155134,0.01798397,-0.0557465,-0.6045023419999999,0.4827663536000001,-2.318817597,-0.348709,0.009952367,-0.04608273
2023-10-31 11:08:25.516000000,0.01383731,0.04158607,-0.02045204,0.08596695,-0.2887355,0.01162565,0.01656519,0.01724582,-0.05077296,-0.5879371519999999,0.5000121736,-2.369590557,-0.3484932,0.01017233,-0.04652968
2023-10-31 11:08:25.528999936,0.01339125,0.04333586,-0.02063962,0.07234376,-0.277359,0.003117858,0.01732502,0.01666895,-0.04585944,-0.5706121319999998,0.5166811236000001,-2.415449997,-0.3481964,0.01041765,-0.04692228
2023-10-31 11:08:25.543000064,0.01280034,0.04517174,-0.02081692,0.06796881,-0.2752188,0.002398952,0.0175974,0.01651041,-0.04095935,-0.5530147319999998,0.5331915336,-2.456409347,-0.3479471,0.0106428,-0.04725499
2023-10-31 11:08:25.556999936,0.01205041,0.04710874,-0.02122066,0.0742684,-0.273919,0.008058068,0.01801364,0.01628452,-0.03614601,-0.5350010919999998,0.5494760536000001,-2.492555357,-0.3477201,0.01087483,-0.04751963
2023-10-31 11:08:25.571000064,0.01123889,0.04894578,-0.02152896,0.08419634,-0.2778462,0.01673903,0.01804032,0.01648368,-0.03132372,-0.5169607719999998,0.5659597336000001,-2.523879077,-0.3474633,0.01114767,-0.0477019
2023-10-31 11:08:25.584999936,0.01023968,0.05056837,-0.02196403,0.1040894,-0.2716965,0.02230586,0.01800653,0.0166357,-0.02659867,-0.4989542419999997,0.5825954336000001,-2.550477747,-0.3471942,0.0114343,-0.04782711
2023-10-31 11:08:25.599000064,0.009188909,0.05224857,-0.02218157,0.1115494,-0.2643548,0.01855055,0.01742541,0.01724909,-0.02209547,-0.4815288319999998,0.5998445236000001,-2.572573217,-0.346958,0.01169771,-0.04793084
2023-10-31 11:08:25.612000000,0.008223733,0.05354977,-0.02210502,0.1210134,-0.2446408,0.003090342,0.01722574,0.01709643,-0.01779645,-0.4643030919999998,0.6169409536000001,-2.590369667,-0.3467374,0.01196579,-0.04791417
2023-10-31 11:08:25.625999872,0.007342331,0.05481789,-0.02205925,0.1191977,-0.2248704,-0.008132068,0.01657344,0.0169289,-0.0134802,-0.4477296519999998,0.6338698536000001,-2.603849867,-0.3465318,0.01222725,-0.04787312
2023-10-31 11:08:25.640000000,0.006471548,0.05596709,-0.02229336,0.1180783,-0.2040358,-0.01089998,0.01593401,0.01623008,-0.00941164,-0.4317956419999998,0.6500999336000002,-2.6132615070000003,-0.3463368,0.01245295,-0.04783617
2023-10-31 11:08:25.654000128,0.005501001,0.05710259,-0.02301791,0.1216796,-0.1974158,0.008941237,0.01482387,0.01568457,-0.005424909,-0.4169717719999998,0.6657845036000002,-2.618686416,-0.3461002,0.01270893,-0.04771243
2023-10-31 11:08:25.668000000,0.004350725,0.05842185,-0.02356147,0.1359709,-0.1915238,0.02623373,0.01420889,0.01545583,-0.001032296,-0.4027628819999998,0.6812403336000001,-2.619718712,-0.3459458,0.01293976,-0.04751513
2023-10-31 11:08:25.680999936,0.003140685,0.05955827,-0.02417991,0.1442483,-0.1914137,0.03421373,0.01300399,0.01441752,0.002384545,-0.3897588919999998,0.6956578536000001,-2.617334167,-0.3457397,0.01311264,-0.04744266
2023-10-31 11:08:25.696000000,0.003059914,0.06077889,-0.0244825,0.1191002,-0.1874166,0.04166126,0.01168406,0.01131754,0.002852248,-0.3780748319999998,0.7069753936000001,-2.614481919,-0.3456001,0.01317772,-0.04729148
2023-10-31 11:08:25.709000192,0.004004356,0.06178123,-0.02431877,0.04764516,-0.1743091,0.03538138,0.009772342,0.006785811,0.0009303563,-0.3683024899999998,0.7137612046,-2.6135515627,-0.3455111,0.01313637,-0.04726161
2023-10-31 11:08:25.723000064,0.005473792,0.06231105,-0.02362704,-0.04174993,-0.1429937,0.007849571,0.007779228,0.001382706,-0.003148531,-0.3605232619999998,0.7151439106,-2.6167000937,-0.3454563,0.01295609,-0.04737704
2023-10-31 11:08:25.736999936,0.006564179,0.06271765,-0.02288611,-0.1039928,-0.106678,-0.02159233,0.005813909,-0.001563579,-0.007096872,-0.3547093529999998,0.7135803316,-2.6237969657,-0.3454305,0.01282462,-0.04753995
2023-10-31 11:08:25.750999808,0.007031952,0.06293872,-0.02237567,-0.1154882,-0.08020242,-0.03754852,0.004009583,-0.0005544065,-0.009299339,-0.3506997699999998,0.7130259251,-2.6330963047,-0.3454268,0.01283249,-0.04770027
2023-10-31 11:08:25.765000192,0.006479885,0.06329715,-0.02204691,-0.06866942,-0.06684299,-0.04444027,0.002914093,0.00342745,-0.009523315,-0.3477856769999998,0.7164533751,-2.6426196197,-0.3454151,0.01297831,-0.04781365
2023-10-31 11:08:25.779000064,0.005249835,0.06360412,-0.02188808,0.005744888,-0.06296078,-0.05209619,0.002679203,0.009250939,-0.008210892,-0.3451064739999998,0.7257043140999999,-2.6508305117,-0.3453821,0.0132589,-0.04787785
2023-10-31 11:08:25.792000000,0.003396234,0.06387481,-0.02150029,0.08016155,-0.05942892,-0.06825583,0.002691989,0.01507615,-0.006592433,-0.3424144849999997,0.7407804640999999,-2.6574229447,-0.3453468,0.01361149,-0.04791231
2023-10-31 11:08:25.806999808,0.002072219,0.06400564,-0.02101925,0.1248976,-0.04788832,-0.07835803,0.002539855,0.01873908,-0.005641214,-0.3398746299999998,0.7595195440999999,-2.6630641587,-0.3453915,0.01392505,-0.04792303
2023-10-31 11:08:25.820000000,0.001057468,0.06382108,-0.02057404,0.1427376,-0.03214737,-0.08305305,0.001899991,0.01944807,-0.005902825,-0.3379746389999998,0.7789676140999999,-2.6689669837000003,-0.3454868,0.01418339,-0.04798149
2023-10-31 11:08:25.834000128,-0.0001011407,0.06371358,-0.02017323,0.1469165,-0.02098276,-0.08769293,0.001342746,0.01872173,-0.006697075,-0.3366318929999998,0.7976893440999999,-2.6756640587,-0.3454856,0.01437887,-0.04810475
2023-10-31 11:08:25.848999936,-0.000737235,0.06343916,-0.01982824,0.1314489,-0.003051526,-0.08528389,0.001160105,0.01826281,-0.007664855,-0.3354717879999997,0.8159521540999999,-2.6833289137,-0.3454773,0.01460053,-0.04825738
2023-10-31 11:08:25.861999872,-0.001493515,0.06305137,-0.01944944,0.1185961,0.01588246,-0.07731489,0.0009284713,0.01658203,-0.008639485,-0.3345433166999997,0.8325341840999999,-2.6919683987,-0.3454692,0.01476729,-0.04842974
2023-10-31 11:08:25.876000000,-0.001768951,0.06291515,-0.01943903,0.1012218,0.02253419,-0.06145734,7.475493e-05,0.01472913,-0.009769144,-0.3344685617699998,0.8472633140999999,-2.7017375427,-0.3454684,0.01493412,-0.04860232
2023-10-31 11:08:25.890000128,-0.002546257,0.0624353,-0.01946964,0.09196273,0.03216265,-0.04511262,-0.0005134568,0.01338108,-0.01029048,-0.3349820185699997,0.8606443940999999,-2.7120280227,-0.3454694,0.01509697,-0.04878822
2023-10-31 11:08:25.904000000,-0.003434489,0.06177023,-0.01924545,0.09591449,0.04766827,-0.03898673,-0.001082713,0.01279076,-0.01047533,-0.3360647315699998,0.8734351540999999,-2.7225033526999995,-0.3455015,0.01524625,-0.0489838
2023-10-31 11:08:25.917999872,-0.00442191,0.06097877,-0.01894532,0.1078587,0.06767567,-0.05049336,-0.001687468,0.01298252,-0.01029331,-0.3377521995699998,0.8864176740999999,-2.7327966627,-0.3455487,0.01541567,-0.04917464
2023-10-31 11:08:25.932000000,-0.005140489,0.06029844,-0.01884626,0.1143609,0.0853352,-0.05239246,-0.002231613,0.01353718,-0.01022975,-0.3399838125699998,0.8999548541,-2.7430264126999995,-0.3456335,0.01559976,-0.04934116
2023-10-31 11:08:25.944999936,-0.00613766,0.05926126,-0.01869487,0.1201749,0.09495216,-0.05006584,-0.002947388,0.0135834,-0.01015556,-0.3429312005699998,0.9135382541,-2.7531819727,-0.3457815,0.01574844,-0.0495028
2023-10-31 11:08:25.959000064,-0.00685718,0.05833182,-0.01849776,0.1231416,0.1018624,-0.04463724,-0.003526959,0.0132754,-0.01001605,-0.3464581595699998,0.9268136541,-2.7631980227,-0.3459287,0.0158818,-0.0496541
2023-10-31 11:08:25.972999936,-0.007630367,0.05750713,-0.01852547,0.125878,0.1103788,-0.04097741,-0.003729246,0.01293878,-0.00971033,-0.3501874055699998,0.9397524341,-2.772908352699999,-0.3459915,0.0160588,-0.04983477
2023-10-31 11:08:25.987000064,-0.008669073,0.05663571,-0.01852154,0.1277227,0.1136163,-0.03450286,-0.003815023,0.01284793,-0.008864275,-0.3540024285699998,0.9526003641,-2.7817726276999992,-0.3460536,0.01623895,-0.04999335
2023-10-31 11:08:26.000999936,-0.0096325,0.05593911,-0.01832437,0.1291343,0.1144782,-0.03805748,-0.003767939,0.01280641,-0.0075007,-0.3577703675699998,0.9654067741,-2.7892733276999992,-0.3461351,0.01644965,-0.0500713
2023-10-31 11:08:26.015000064,-0.01054645,0.05515215,-0.01805235,0.1315828,0.108137,-0.04413923,-0.003677493,0.01306117,-0.005561181,-0.3614478605699998,0.9784679441,-2.7948345087,-0.3462256,0.01668574,-0.05009486
2023-10-31 11:08:26.028999936,-0.01152704,0.05449408,-0.01787284,0.1323186,0.103884,-0.04919695,-0.003302682,0.01311811,-0.003684239,-0.3647505425699998,0.9915860541,-2.7985187477,-0.3462898,0.0169013,-0.05010633
2023-10-31 11:08:26.043000064,-0.01228274,0.05388975,-0.01764589,0.1265415,0.09525128,-0.04747057,-0.002846749,0.01220773,-0.001999395,-0.3675972915699997,1.0037937841,-2.800518142699999,-0.3463235,0.01703416,-0.05012888
2023-10-31 11:08:26.056999936,-0.01273539,0.0533061,-0.01734074,0.1093363,0.08593312,-0.05279582,-0.002662833,0.01131131,-0.0004365552,-0.3702601245699997,1.0151050941,-2.800954697899999,-0.3463614,0.01714858,-0.05012994
2023-10-31 11:08:26.071000064,-0.01330702,0.05289745,-0.01711207,0.09466737,0.08020635,-0.05300176,-0.002260511,0.009453683,0.0009950279,-0.3725206355699997,1.0245587771,-2.799959669999999,-0.3463626,0.01715189,-0.05008453
2023-10-31 11:08:26.084999936,-0.01346144,0.05236644,-0.01704487,0.07584551,0.07326961,-0.04696111,-0.001928592,0.007682055,0.002162758,-0.3744492275699997,1.0322408321,-2.797796911999999,-0.3463598,0.01713802,-0.05003454
2023-10-31 11:08:26.098000128,-0.01377934,0.05184335,-0.01677397,0.06004884,0.07112367,-0.04351407,-0.001495294,0.005990967,0.003268615,-0.3759445215699997,1.0382317991,-2.794528296999999,-0.3463616,0.01712493,-0.04998195
2023-10-31 11:08:26.112000000,-0.01394797,0.05144179,-0.01659441,0.04864358,0.06699357,-0.03925839,-0.001247557,0.005049803,0.004450967,-0.3771920785699997,1.0432816021,-2.790077329999999,-0.3463756,0.01715671,-0.04991324
2023-10-31 11:08:26.125999872,-0.01432447,0.05109814,-0.01655921,0.04795599,0.06272481,-0.0359457,-0.001119685,0.004746398,0.005592152,-0.3783117635699997,1.0480280001,-2.784485177999999,-0.3463911,0.01721314,-0.0498271
2023-10-31 11:08:26.140000000,-0.01473663,0.05069947,-0.01640866,0.04982437,0.058724,-0.03074308,-0.0009847509,0.004716425,0.006478674,-0.3792965144699997,1.0527444251,-2.778006503999999,-0.3464295,0.01728602,-0.04973806
2023-10-31 11:08:26.154000128,-0.01492171,0.05032375,-0.01625381,0.04856715,0.05499153,-0.02484189,-0.0008754293,0.004548562,0.007034509,-0.3801719437699997,1.0572929871,-2.770971994999999,-0.3464665,0.0173533,-0.04964764
2023-10-31 11:08:26.168000000,-0.01498352,0.05005273,-0.01632344,0.03640202,0.05292842,-0.01985137,-0.0004711014,0.004359557,0.007230029,-0.3806430451699997,1.0616525441,-2.763741965999999,-0.3464723,0.01741919,-0.04955903
2023-10-31 11:08:26.181999872,-0.01518732,0.04966715,-0.01632462,0.03125497,0.05151514,-0.0125565,-0.0004543921,0.003826525,0.007027945,-0.3810974372699997,1.0654790691,-2.756714020999999,-0.3464822,0.01745713,-0.0494927
2023-10-31 11:08:26.196000000,-0.01508702,0.04932523,-0.01637775,0.02148008,0.05048244,-0.01221463,-0.0006471493,0.003589994,0.006813061,-0.3817445865699997,1.0690690631,-2.74990096,-0.3465106,0.01750219,-0.04942213
2023-10-31 11:08:26.210000128,-0.01524609,0.04906604,-0.01625531,0.01456279,0.04586419,-0.01243894,-0.001150186,0.003116891,0.006553291,-0.3828947725699997,1.0721859540999998,-2.7433476689999994,-0.3465902,0.01752118,-0.04933827
2023-10-31 11:08:26.223000064,-0.01542833,0.04867974,-0.0162644,0.01457781,0.04585579,-0.0124523,-0.001368934,0.002803628,0.006349272,-0.3842637065699997,1.0749895820999995,-2.736998397,-0.3466612,0.0175494,-0.04926539
2023-10-31 11:08:26.236999936,-0.0156229,0.04839256,-0.01615302,0.02137867,0.04314841,-0.009949031,-0.001737108,0.002995992,0.006160682,-0.3860008145699997,1.0779855740999995,-2.7308377149999994,-0.3467029,0.01758843,-0.04920137
2023-10-31 11:08:26.250999808,-0.01599707,0.04801849,-0.01582294,0.03357051,0.04698836,-0.02109462,-0.001729208,0.003754604,0.00606089,-0.3877300225699996,1.0817401780999998,-2.724776825,-0.3467293,0.01764199,-0.04914454
2023-10-31 11:08:26.265000192,-0.01656512,0.04758507,-0.01596509,0.04319835,0.04785446,-0.01684749,-0.001839685,0.004899371,0.005908113,-0.3895697075699996,1.0866395490999998,-2.7188687119999995,-0.3467744,0.01774375,-0.04910261
2023-10-31 11:08:26.279000064,-0.01696043,0.04726729,-0.0161484,0.05532321,0.05031571,-0.01137841,-0.002024675,0.005793949,0.005397571,-0.3915943825699996,1.0924334981,-2.7134711409999994,-0.3468411,0.01784616,-0.04907892
2023-10-31 11:08:26.292999936,-0.01733578,0.04697031,-0.01638836,0.05714507,0.04958261,-0.001737641,-0.002520848,0.005967446,0.004573758,-0.3941152305699996,1.0984009441,-2.708897383,-0.3469203,0.01793628,-0.04907217
2023-10-31 11:08:26.306999808,-0.01728813,0.04658836,-0.01647209,0.04365415,0.05118703,0.006706467,-0.002985409,0.005370327,0.003391827,-0.3971006395699996,1.1037712711,-2.7055055559999994,-0.3469763,0.01800086,-0.04908144
2023-10-31 11:08:26.321000192,-0.01704297,0.0461897,-0.01645799,0.02400742,0.05541077,0.004529248,-0.003454594,0.004361939,0.002165901,-0.4005552335699996,1.1081332101,-2.703339655,-0.3470393,0.01803274,-0.04910872
2023-10-31 11:08:26.335000064,-0.0169449,0.04570144,-0.01639783,0.008949409,0.05913923,-0.002008742,-0.004162569,0.00329949,0.0009295009,-0.4047178025699996,1.1114327001000002,-2.7024101540999994,-0.3471389,0.01803445,-0.04916688
2023-10-31 11:08:26.348999936,-0.01691613,0.04515314,-0.01627252,0.001943243,0.06345648,-0.006345291,-0.004681003,0.002327204,-0.0005181154,-0.4093988055699996,1.1137599041,-2.702928269499999,-0.3472512,0.01801649,-0.04925738
2023-10-31 11:08:26.362999808,-0.01709715,0.04461733,-0.0160868,-0.001301246,0.06571682,-0.01309428,-0.005112536,0.002001262,-0.001740565,-0.4145113415699996,1.1157611661000002,-2.704668834499999,-0.3473569,0.0180127,-0.0493556
2023-10-31 11:08:26.377000192,-0.01707241,0.04417768,-0.01599744,0.003602996,0.06594341,-0.01604118,-0.005522694,0.00227458,-0.003174092,-0.4200340355699996,1.1180357461,-2.7078429264999992,-0.3474469,0.01804404,-0.04946525
2023-10-31 11:08:26.390000128,-0.01731305,0.04366943,-0.01595163,0.01190648,0.06796594,-0.01902174,-0.005900234,0.003174775,-0.004592699,-0.4259342695699996,1.1212105211,-2.712435625499999,-0.3475419,0.01810819,-0.0495996
2023-10-31 11:08:26.404999936,-0.01748477,0.04318035,-0.01587568,0.02303986,0.06967816,-0.01797958,-0.00620599,0.003466099,-0.006269152,-0.4321402595699996,1.1246766201,-2.7187047775,-0.3476534,0.01819261,-0.04975826
2023-10-31 11:08:26.417999872,-0.01757766,0.04264513,-0.01568659,0.0236079,0.07051521,-0.02117584,-0.006341738,0.003395957,-0.00810818,-0.4384819975699996,1.1280725771,-2.726812957499999,-0.347763,0.0182602,-0.04994937
2023-10-31 11:08:26.432000000,-0.01785654,0.04200128,-0.01554194,0.02366351,0.07416543,-0.02237787,-0.006330324,0.002951709,-0.00996016,-0.4448123215699996,1.1310242861,-2.736773117499999,-0.3478606,0.01829438,-0.0501768
2023-10-31 11:08:26.446000128,-0.01797456,0.0414921,-0.01556744,0.02412041,0.07457904,-0.02005849,-0.006474513,0.00251878,-0.01177798,-0.4512868345699996,1.1335430661,-2.748551097499999,-0.3479565,0.01831832,-0.05042174
2023-10-31 11:08:26.460000000,-0.01818452,0.04088387,-0.01566526,0.02416533,0.07882765,-0.01543984,-0.006336166,0.002148961,-0.01363985,-0.4576230005699996,1.1356920271,-2.7621909475,-0.3480477,0.01833498,-0.05069983
2023-10-31 11:08:26.473999872,-0.01834537,0.0402284,-0.01544236,0.0270151,0.08418559,-0.01988939,-0.006305149,0.001799197,-0.01509173,-0.4639281495699996,1.1374912241,-2.7772826774999992,-0.3481623,0.01829167,-0.05098579
2023-10-31 11:08:26.488000000,-0.01857583,0.0395503,-0.01518797,0.02833571,0.08684479,-0.02604471,-0.006042025,0.001996288,-0.01599631,-0.4699701745699996,1.1394875121,-2.793278987499999,-0.3482686,0.01826197,-0.05127021
2023-10-31 11:08:26.502000128,-0.01905869,0.03897548,-0.01482326,0.03450492,0.08737642,-0.03468832,-0.00544576,0.002919934,-0.01653857,-0.4754159345699996,1.1424074460999998,-2.809817557499999,-0.3483371,0.01829602,-0.05155176
2023-10-31 11:08:26.516000000,-0.01943222,0.0385257,-0.0149843,0.04391843,0.07973745,-0.02698483,-0.004583706,0.00362023,-0.0170285,-0.4799996405699996,1.1460276760999997,-2.8268460574999987,-0.3483788,0.01837501,-0.05183125
2023-10-31 11:08:26.529999872,-0.01981946,0.03838688,-0.01521022,0.04991756,0.06306571,-0.009101971,-0.003778931,0.003705301,-0.01766974,-0.4837785715699996,1.1497329770999998,-2.844515797499999,-0.3484284,0.01845314,-0.05209701
2023-10-31 11:08:26.544000000,-0.01996864,0.03818318,-0.01516452,0.04900063,0.0486217,-0.008601769,-0.002437732,0.003512879,-0.01835274,-0.4862163035699997,1.1532458561,-2.862868537499999,-0.3484772,0.01851828,-0.05236306
2023-10-31 11:08:26.556999936,-0.02021163,0.03807521,-0.01492574,0.04200403,0.03629464,-0.01343488,-0.001090591,0.003448886,-0.01903351,-0.4873068945699996,1.1566947420999998,-2.881902047499999,-0.3485054,0.01857412,-0.05263462
2023-10-31 11:08:26.571000064,-0.02028933,0.03803435,-0.01484651,0.0329508,0.02407278,-0.0179254,-0.0001078667,0.003153992,-0.01983677,-0.4874147612699996,1.1598487341,-2.9017388174999987,-0.3484502,0.01860289,-0.05296362
2023-10-31 11:08:26.584999936,-0.02058869,0.03804052,-0.01476867,0.03064177,0.01458634,-0.01472171,0.0008279178,0.002543793,-0.02046928,-0.4865868434699996,1.1623925271,-2.9222080974999987,-0.3484176,0.01859126,-0.05324583
2023-10-31 11:08:26.599000064,-0.0205733,0.03799132,-0.01484352,0.02540162,0.008668187,-0.01120068,0.00185976,0.002511259,-0.0206846,-0.4847270834699996,1.1649037861,-2.9428926974999987,-0.3483514,0.01865267,-0.0535316
2023-10-31 11:08:26.612999936,-0.02095233,0.03812355,-0.01488497,0.0238316,0.001394469,-0.00410566,0.002450651,0.002462615,-0.02071608,-0.4822764324699996,1.1673664011,-2.963608777499999,-0.3483588,0.01860622,-0.05381552
2023-10-31 11:08:26.628000000,-0.02111343,0.03834042,-0.0149867,0.02939738,-0.002160609,-0.001389408,0.002772322,0.002444467,-0.02066312,-0.4795041104699996,1.1698108681,-2.984271897499999,-0.3483858,0.01864128,-0.05408465
2023-10-31 11:08:26.640999936,-0.02150093,0.03822732,-0.01510307,0.03365505,-0.00595603,0.007063289,0.003086756,0.002468891,-0.02048712,-0.4764173544699996,1.1722797590999998,-3.0047590174999987,-0.348271,0.018653,-0.05437855
2023-10-31 11:08:26.655000064,-0.02173557,0.03829795,-0.0153348,0.03868609,-0.009267201,0.01329799,0.003185884,0.002337166,-0.02057251,-0.4732314704699996,1.1746169250999998,-3.025331527499999,-0.3482212,0.01871395,-0.05465809
2023-10-31 11:08:26.670000128,-0.02196389,0.0384807,-0.01549354,0.04329817,-0.01041483,0.01569649,0.003102911,0.002048909,-0.02097231,-0.4701285594699996,1.1766658340999998,-3.0463038374999987,-0.3482394,0.01879592,-0.0549727
2023-10-31 11:08:26.683000064,-0.02232793,0.03850633,-0.01563742,0.04240618,-0.01192044,0.01764468,0.002913058,0.002013735,-0.0212003,-0.4672155014699996,1.1786795690999998,-3.0675041374999985,-0.3482276,0.01882001,-0.0552992
2023-10-31 11:08:26.696999936,-0.02258852,0.03856558,-0.0158864,0.04155651,-0.008509483,0.01757949,0.002619618,0.001795973,-0.02115383,-0.4645958834699996,1.1804755420999995,-3.0886579674999983,-0.3482237,0.01885582,-0.05559998
2023-10-31 11:08:26.711000064,-0.0226342,0.03856274,-0.01599128,0.03457768,-0.006214271,0.02025703,0.002551632,0.001358417,-0.02121587,-0.4620442514699995,1.1818339590999998,-3.109873837499998,-0.3481734,0.01888143,-0.05590521
2023-10-31 11:08:26.724999936,-0.02274208,0.03866431,-0.01606824,0.02443668,-0.0103737,0.01935775,0.002284088,0.0009894762,-0.02126087,-0.4597601634699995,1.1828234352999998,-3.131134707499998,-0.3481425,0.01888458,-0.05618966
2023-10-31 11:08:26.739000064,-0.02267076,0.03879219,-0.01605728,0.01924028,-0.01306513,0.0148512,0.002094189,0.000888491,-0.02095393,-0.4576659744699995,1.1837119262999998,-3.152088637499998,-0.3481761,0.01899344,-0.0563875
2023-10-31 11:08:26.752999936,-0.0230139,0.03900805,-0.01617372,0.0208378,-0.01470558,0.01195914,0.002046137,0.00125946,-0.02047412,-0.4556198374699995,1.1849713862999998,-3.172562757499998,-0.348222,0.01901114,-0.05660405
2023-10-31 11:08:26.767000064,-0.02313968,0.03911167,-0.0161854,0.02415723,-0.01828576,0.007193754,0.001820541,0.002046861,-0.01980863,-0.4537992964699995,1.1870182472999995,-3.192371387499998,-0.3482087,0.019069,-0.05684492
2023-10-31 11:08:26.780999936,-0.02348259,0.03925464,-0.01616661,0.03092222,-0.01641597,0.001207687,0.001803634,0.002693885,-0.01931857,-0.4519956624699995,1.1897121322999995,-3.2116899574999977,-0.3481825,0.01912014,-0.05709354
2023-10-31 11:08:26.795000064,-0.02391373,0.03922784,-0.0162285,0.03958797,-0.01757461,0.00197195,0.001715381,0.003140464,-0.01898413,-0.4502802814699995,1.1928525962999996,-3.230674087499998,-0.3481652,0.01917768,-0.05735719
2023-10-31 11:08:26.808999936,-0.02432256,0.0394038,-0.01638087,0.04023277,-0.01815499,-0.0004944829,0.001670377,0.003640833,-0.01879012,-0.4486099044699995,1.1964934292999996,-3.2494642074999978,-0.3481651,0.01924439,-0.05763138
2023-10-31 11:08:26.823000064,-0.02454818,0.03947535,-0.01625381,0.04210632,-0.02034428,-0.001332447,0.00155391,0.003387198,-0.01874039,-0.4470559944699995,1.1998806272999996,-3.268204597499998,-0.3481691,0.01926949,-0.057915
2023-10-31 11:08:26.836999936,-0.02493073,0.03962106,-0.01623257,0.04145479,-0.02158802,-0.004907492,0.001540731,0.002922837,-0.01844355,-0.4455152634699995,1.2028034642999996,-3.286648147499998,-0.3481506,0.01929645,-0.05816026
2023-10-31 11:08:26.851000064,-0.02521328,0.03980851,-0.01626064,0.04082622,-0.02232042,-0.001679194,0.00167554,0.002750026,-0.01800805,-0.4438397234699995,1.2055534902999996,-3.304656197499998,-0.3481228,0.01933362,-0.05838837
2023-10-31 11:08:26.865999872,-0.02537913,0.04010034,-0.0162894,0.04268185,-0.02454885,-0.002551041,0.001641695,0.002339392,-0.01747211,-0.4421980284699995,1.2078928822999997,-3.322128307499998,-0.3481194,0.01938045,-0.05859483
2023-10-31 11:08:26.879000064,-0.02565766,0.04014483,-0.016151,0.03727302,-0.02440679,-0.009537552,0.001595987,0.002061623,-0.01665887,-0.4406020414699995,1.2099545052999996,-3.338787177499998,-0.348143,0.01944119,-0.05879388
2023-10-31 11:08:26.892999936,-0.02584374,0.04034808,-0.01572054,0.03342296,-0.0246306,-0.02021279,0.00174194,0.001962942,-0.01552989,-0.4388601014699995,1.2119174472999996,-3.354317067499998,-0.3481574,0.0194811,-0.05895922
2023-10-31 11:08:26.907000064,-0.02613912,0.04050463,-0.01586325,0.03409276,-0.02469832,-0.01585861,0.001941352,0.001470572,-0.01442274,-0.4369187494699995,1.2133880192999995,-3.368739807499998,-0.348125,0.01949854,-0.05912355
2023-10-31 11:08:26.920000000,-0.02643438,0.04070833,-0.01591964,0.03052958,-0.02804635,-0.009530182,0.00183918,0.001093978,-0.01343845,-0.4350795694699995,1.2144819972999996,-3.3821782574999983,-0.3481,0.01950894,-0.05927353
2023-10-31 11:08:26.935000064,-0.02639605,0.04093614,-0.0159755,0.02648436,-0.02791435,0.005515086,0.001905028,0.0003578324,-0.01259881,-0.4331745414699995,1.2148398296999996,-3.3947770674999984,-0.3481138,0.01952768,-0.05941214
2023-10-31 11:08:26.948999936,-0.02633832,0.04117861,-0.01615235,0.01654764,-0.03005011,0.005257924,0.00201491,0.0001516991,-0.01199048,-0.4311596314699995,1.2149915287999995,-3.4067675474999985,-0.3481507,0.01957735,-0.05954619
2023-10-31 11:08:26.961999872,-0.02647314,0.04142576,-0.01601517,0.01341367,-0.03294861,0.0005145908,0.001988097,2.283126e-05,-0.0115238,-0.4291715344699995,1.2150143600599994,-3.4182913474999985,-0.3481747,0.01959842,-0.05967738
2023-10-31 11:08:26.976999936,-0.02658403,0.04156795,-0.01584888,0.009316435,-0.03345414,-0.00457665,0.001811204,9.679957e-05,-0.0111173,-0.4273603304699995,1.2151111596299995,-3.4294086474999985,-0.3481526,0.01959142,-0.05981257
2023-10-31 11:08:26.990000128,-0.02661696,0.0418466,-0.01574506,0.009022084,-0.03292692,-0.006632873,0.001770982,0.0001219606,-0.01103266,-0.4255893484699995,1.2152331202299995,-3.4404413074999987,-0.3481288,0.01958797,-0.05994639
2023-10-31 11:08:27.004000000,-0.02680303,0.04210973,-0.01554111,0.01021478,-0.03640438,-0.01103338,0.001597397,0.0001767885,-0.01095446,-0.4239919514699995,1.2154099087299994,-3.4513957674999984,-0.3481146,0.01960071,-0.06006989
2023-10-31 11:08:27.019000064,-0.02681214,0.04256329,-0.01548596,0.01054826,-0.04265817,-0.01270284,0.001334023,0.0004679907,-0.01082881,-0.4226579284699995,1.2158778994299997,-3.4622245774999985,-0.3481036,0.01963385,-0.06017777
2023-10-31 11:08:27.032000000,-0.02707484,0.04286101,-0.01543337,0.01716647,-0.04493808,-0.01091592,0.001173872,0.0004988728,-0.01067742,-0.4214840564699995,1.2163767722299994,-3.4729019974999984,-0.3480914,0.01964707,-0.06030044
2023-10-31 11:08:27.046000128,-0.02745399,0.04302683,-0.01525756,0.02431681,-0.04392358,-0.0139218,0.0009921305,0.0002811551,-0.01056194,-0.4204919259699994,1.2166579273299991,-3.4834639374999985,-0.3480826,0.01963653,-0.06043414
2023-10-31 11:08:27.060000000,-0.02755738,0.04334179,-0.01525185,0.02457526,-0.04316365,-0.01266921,0.0007544365,7.800455e-05,-0.01046158,-0.4197374894699994,1.2167359318799993,-3.4939255174999984,-0.3480853,0.01963641,-0.06056012
2023-10-31 11:08:27.073999872,-0.02766039,0.0435853,-0.01530415,0.01951735,-0.0394429,-0.01206876,0.000372312,-6.456638e-05,-0.0102572,-0.4193651774699994,1.2166713654999992,-3.504182717499998,-0.3481835,0.01965674,-0.06071706
2023-10-31 11:08:27.088000000,-0.02763158,0.04377484,-0.0151755,0.01400845,-0.03897843,-0.00666299,-0.000278844,-0.0004030086,-0.01028947,-0.4196440214699994,1.2162683568999992,-3.5144721874999982,-0.3482904,0.0196527,-0.06087928
2023-10-31 11:08:27.101999872,-0.02749653,0.04405332,-0.01520346,0.003401759,-0.03350731,-0.001427451,-0.0007885047,-0.001054612,-0.01044454,-0.4204325261699995,1.2152137448999991,-3.524916727499998,-0.3483346,0.01962925,-0.06101865
2023-10-31 11:08:27.115000064,-0.02728863,0.04418287,-0.01500682,-0.004812105,-0.03271154,-0.005531048,-0.001472968,-0.002122241,-0.0106701,-0.4219054941699995,1.2130915038999994,-3.535586827499998,-0.3483707,0.0195607,-0.06116294
2023-10-31 11:08:27.130000128,-0.02727709,0.04424554,-0.01477016,-0.01584244,-0.02371148,-0.01042042,-0.001850582,-0.001948324,-0.01045078,-0.4237560761699995,1.2111431798999994,-3.5460376074999984,-0.3484031,0.01954896,-0.06128472
2023-10-31 11:08:27.142999808,-0.0274013,0.04430023,-0.0148109,-0.00616913,-0.01510285,-0.01421456,-0.002391898,-0.001790231,-0.00964361,-0.4261479741699995,1.2093529488999994,-3.5556812174999983,-0.3484447,0.01960994,-0.06135284
2023-10-31 11:08:27.157000192,-0.02758609,0.04429585,-0.01483311,0.009469291,-0.009642379,-0.007501738,-0.003265936,-0.000332469,-0.008762188,-0.4294139101699995,1.2090204798999995,-3.5644434054999983,-0.3485077,0.01972414,-0.06141066
2023-10-31 11:08:27.171000064,-0.0280381,0.0442712,-0.01477973,0.02781097,-0.005760525,-0.009413944,-0.00379129,0.001549521,-0.007909224,-0.4332052001699995,1.2105700008999996,-3.5723526294999983,-0.3485739,0.0197911,-0.0615008
2023-10-31 11:08:27.186000128,-0.02836367,0.04415882,-0.01460801,0.03807837,-0.001340861,-0.01437367,-0.004291581,0.003191108,-0.007346523,-0.4374967811699995,1.2137611088999996,-3.579699152499998,-0.3486481,0.01986583,-0.06159685
2023-10-31 11:08:27.200000000,-0.02882144,0.04397985,-0.01452923,0.04538418,0.003024291,-0.01775528,-0.004907605,0.003758932,-0.007003577,-0.4424043861699995,1.2175200408999995,-3.586702729499998,-0.3487639,0.01989317,-0.06170091
2023-10-31 11:08:27.212999936,-0.02903634,0.04387942,-0.01439321,0.03869759,0.006549713,-0.02027465,-0.005622848,0.003373254,-0.007087224,-0.4480272341699995,1.2208932948999995,-3.593789953499998,-0.3489162,0.01986005,-0.06181318
2023-10-31 11:08:27.227000064,-0.02906643,0.04378283,-0.01437216,0.02865197,0.01269494,-0.01828512,-0.005806874,0.002551764,-0.006901725,-0.4538341081699995,1.2234450588999994,-3.6006916784999983,-0.349048,0.01982077,-0.06191433
2023-10-31 11:08:27.240999936,-0.02910625,0.04364607,-0.01417652,0.02057169,0.01767506,-0.01690111,-0.005752604,0.001782277,-0.006852194,-0.4595867121699995,1.2252273358999994,-3.607543872499998,-0.3491284,0.01981531,-0.06201683
2023-10-31 11:08:27.256999936,-0.02913936,0.0434598,-0.01423187,0.01206262,0.01849858,-0.01646833,-0.005951885,0.001375529,-0.006569672,-0.4655385971699995,1.2266028648999994,-3.614113544499998,-0.3492168,0.01982949,-0.06211317
2023-10-31 11:08:27.268999936,-0.02912232,0.04322156,-0.01417571,0.005447734,0.02031469,-0.01164864,-0.005832318,0.001452922,-0.006094509,-0.4713709151699995,1.2280557868999993,-3.620208053499998,-0.3493093,0.01988501,-0.06218474
2023-10-31 11:08:27.282000128,-0.02918122,0.04318428,-0.01410421,0.006854056,0.01845584,-0.008991606,-0.005758294,0.001225781,-0.005785186,-0.4771292091699995,1.229281567899999,-3.6259932394999983,-0.3494137,0.01996752,-0.06222717
2023-10-31 11:08:27.296000000,-0.02925063,0.04311848,-0.0140721,0.007568213,0.0152848,-0.009881238,-0.005520822,0.0009569161,-0.005588638,-0.4826500311699995,1.2302384839999994,-3.631581877499998,-0.3495075,0.02004048,-0.06227477
2023-10-31 11:08:27.311000064,-0.02925323,0.04307067,-0.01404652,0.005462447,0.01182845,-0.008177772,-0.005209678,0.0006350252,-0.005445297,-0.4878597091699995,1.2308735091999994,-3.6370271744999982,-0.3495718,0.02004136,-0.06234917
2023-10-31 11:08:27.324000000,-0.02923157,0.04302466,-0.01393344,0.001516792,0.009699395,-0.01142275,-0.004657181,0.0002964,-0.005352685,-0.4925168901699995,1.2311699091999997,-3.6423798594999983,-0.3496246,0.02002996,-0.0624232
2023-10-31 11:08:27.339000064,-0.02925949,0.04302004,-0.01376699,0.00153557,0.00522792,-0.01586145,-0.004285162,-0.000358424,-0.005228096,-0.4968020521699995,1.2308114851999994,-3.6476079555,-0.3496822,0.01997873,-0.06244255
2023-10-31 11:08:27.352000000,-0.02920381,0.04309025,-0.01366169,-0.002989472,-0.001187022,-0.01450867,-0.004049481,-0.0006432343,-0.005281903,-0.5008515331699995,1.2301682508999994,-3.652889858499999,-0.349738,0.01993592,-0.06246333
2023-10-31 11:08:27.367000064,-0.02918806,0.04311839,-0.01358748,-0.003827389,-0.002652002,-0.01251433,-0.003601377,-0.001496613,-0.005470712,-0.5044529101699995,1.2286716378999991,-3.658360570499999,-0.3497799,0.0198811,-0.06252224
2023-10-31 11:08:27.380000000,-0.02900987,0.04322109,-0.01347292,-0.01273993,-0.00725556,-0.01225971,-0.003574337,-0.002096132,-0.005602647,-0.5080272471699995,1.2265755058999994,-3.663963217499999,-0.3498287,0.01983062,-0.06259616
2023-10-31 11:08:27.394000128,-0.02874988,0.04326996,-0.01337158,-0.01780854,-0.007158007,-0.0103359,-0.003144454,-0.002862894,-0.005446794,-0.5111717011699994,1.2237126118999997,-3.669410011499999,-0.3498654,0.01977243,-0.06266101
2023-10-31 11:08:27.408000000,-0.02874135,0.04338893,-0.01321493,-0.01740649,-0.009827207,-0.01327161,-0.002688966,-0.003397643,-0.00507624,-0.5138606671699995,1.2203149688999997,-3.674486251499999,-0.3499143,0.01975141,-0.06269827
2023-10-31 11:08:27.421999872,-0.02869326,0.04363394,-0.01315493,-0.01988489,-0.01510715,-0.0130593,-0.002140954,-0.003168325,-0.00452602,-0.5160016211699995,1.2171466438999994,-3.679012271499999,-0.3499512,0.01975706,-0.06271583
2023-10-31 11:08:27.435000064,-0.02853434,0.04370603,-0.01307622,-0.01653129,-0.01684473,-0.01180019,-0.00164005,-0.003364317,-0.004212492,-0.5176416711699995,1.2137823268999994,-3.6832247634999993,-0.349966,0.01971046,-0.06275783
2023-10-31 11:08:27.450000128,-0.02837262,0.04373288,-0.01304941,-0.01875177,-0.01687611,-0.005903028,-0.001360419,-0.003943997,-0.004289409,-0.5190020901699994,1.2098383298999995,-3.6875141725,-0.3499786,0.01963877,-0.06281687
2023-10-31 11:08:27.464000000,-0.02822748,0.04384634,-0.01290694,-0.02137626,-0.01830804,-0.008071478,-0.001136117,-0.00470762,-0.004446655,-0.5201382071699995,1.2051307098999997,-3.6919608275,-0.3500138,0.01956797,-0.06286378
2023-10-31 11:08:27.477999872,-0.02799991,0.04404902,-0.0129169,-0.02573094,-0.01777534,-0.008360517,-0.0006419655,-0.005319568,-0.0041982,-0.5207801726699994,1.1998111418999995,-3.6961590275,-0.3500767,0.01954034,-0.06287441
2023-10-31 11:08:27.491000064,-0.02771533,0.04417741,-0.01290013,-0.03107048,-0.01846415,-0.007689398,-0.0006421899,-0.005434476,-0.004026505,-0.5214223625699994,1.1943766658999997,-3.7001855325,-0.3501493,0.01951756,-0.06288932
2023-10-31 11:08:27.505000192,-0.02757828,0.04430068,-0.01267841,-0.03078846,-0.01771039,-0.006419349,-0.0006407257,-0.005699479,-0.003717335,-0.5220630882699994,1.1886771868999997,-3.7039028675,-0.3501614,0.01941935,-0.06292411
2023-10-31 11:08:27.519000064,-0.02740645,0.04439816,-0.01254452,-0.03067679,-0.01668811,-0.006176837,-0.0003128867,-0.005309963,-0.003441784,-0.5223759749699993,1.1833672238999997,-3.7073446515,-0.350158,0.01934605,-0.06295877
2023-10-31 11:08:27.532999936,-0.02739519,0.04444087,-0.01226232,-0.02169829,-0.01503696,-0.01723104,9.088137e-05,-0.003730625,-0.002735428,-0.5222850935999993,1.1796365988999995,-3.7100800795,-0.3501699,0.01935381,-0.06296509
2023-10-31 11:08:27.546999808,-0.02763084,0.04449919,-0.0123383,-0.003016757,-0.01278143,-0.01633056,0.0002317969,-0.001918673,-0.002211401,-0.5220532966999993,1.1777179258999997,-3.7122914805,-0.3502065,0.01945718,-0.06295578
2023-10-31 11:08:27.561000192,-0.02766269,0.04462779,-0.01231261,0.002698311,-0.01303328,-0.008406555,-6.724265e-06,-0.0009301331,-0.002060766,-0.5220600209649994,1.1767877927999997,-3.7143522465,-0.3502491,0.01953968,-0.06295148
2023-10-31 11:08:27.575000064,-0.02775876,0.04473397,-0.01247082,0.006822012,-0.01392985,0.002958366,-3.94684e-05,-0.0007778706,-0.002215321,-0.5220994893649994,1.1760099221999996,-3.7165675675,-0.3502483,0.01954134,-0.06297988
2023-10-31 11:08:27.588999936,-0.02778948,0.04480171,-0.01255105,0.00632006,-0.01231669,0.005674316,0.0003186056,0.0001388595,-0.001955531,-0.5217808837649994,1.1761487816999996,-3.7185230985,-0.3502339,0.01956871,-0.06299724
2023-10-31 11:08:27.602999808,-0.02800614,0.04493892,-0.01260111,0.01529758,-0.01702634,0.003030911,0.000413231,0.0007168333,-0.001880959,-0.5213676527649994,1.1768656149999996,-3.7204040575,-0.3502473,0.01960662,-0.06302544
2023-10-31 11:08:27.617000192,-0.02810169,0.04502395,-0.01250145,0.01538921,-0.01323148,-0.003836412,0.0006719069,0.001299059,-0.001979009,-0.5206957458649994,1.1781646739999996,-3.7223830665,-0.3502598,0.01964853,-0.06306481
2023-10-31 11:08:27.631000064,-0.02827739,0.04505619,-0.01241925,0.0139064,-0.01368623,-0.005927853,0.0005772564,0.001257097,-0.002197557,-0.5201184894649995,1.1794217709999997,-3.7245806235,-0.3502728,0.01967008,-0.06310795
2023-10-31 11:08:27.644000000,-0.02825363,0.04514229,-0.01238044,0.009558412,-0.01317082,-0.006203949,0.000640809,0.0006466993,-0.002452813,-0.5194776804649995,1.1800684702999995,-3.7270334365,-0.3502619,0.01966314,-0.06314218
2023-10-31 11:08:27.657999872,-0.02812993,0.04530585,-0.01229033,-0.001584972,-0.01743089,-0.006548584,9.206217e-05,-0.0007514533,-0.003159582,-0.5193856182949995,1.1793170169999998,-3.7301930185,-0.3502756,0.01962067,-0.06318918
2023-10-31 11:08:27.673000192,-0.02777144,0.04529732,-0.01221631,-0.01518362,-0.01298457,-0.005435614,-9.318092e-05,-0.001906125,-0.003179215,-0.5194787992149995,1.1774108919999997,-3.7333722335,-0.3503631,0.01966236,-0.06320687
2023-10-31 11:08:27.686000128,-0.02783034,0.0454022,-0.01219905,-0.01646308,-0.01137809,-0.007039942,-0.0003420967,-0.002196747,-0.002489508,-0.5198208959149995,1.1752141449999998,-3.7358617415,-0.3504532,0.01971907,-0.06319398
2023-10-31 11:08:27.700999936,-0.02794036,0.04536268,-0.01208908,-4.864018e-05,-0.005113365,-0.008190748,-0.0001800865,-0.001843439,-0.0009602701,-0.5200009824149995,1.1733707059999998,-3.7368220116,-0.3504823,0.0197274,-0.06316707
2023-10-31 11:08:27.713999872,-0.02839189,0.04519635,-0.01186486,0.01543893,-0.00220393,-0.01336288,-0.0004520261,-0.001277213,0.0004342132,-0.5204530085149994,1.1720934929999998,-3.7363877984,-0.3504969,0.01970982,-0.06314091
2023-10-31 11:08:27.728000000,-0.02852348,0.04521835,-0.01200988,0.02411623,0.001235698,-0.008380081,-0.0006626031,-0.001316645,0.001360511,-0.5211156116149994,1.1707768479999998,-3.7350272874,-0.3505148,0.01969632,-0.06309645
2023-10-31 11:08:27.742000128,-0.02865941,0.04521337,-0.01208667,0.02163555,0.004007184,-0.005053576,-0.0009788318,-0.001772874,0.001829489,-0.5220944434149994,1.1690039739999998,-3.7331977984,-0.350559,0.01964069,-0.0630436
2023-10-31 11:08:27.756000000,-0.0286036,0.04510358,-0.01208116,0.01282166,0.008456862,-0.001372708,-0.001034509,-0.002943215,0.002094242,-0.5231289524149995,1.1660607589999998,-3.7311035564,-0.3505991,0.01954633,-0.06299731
2023-10-31 11:08:27.769999872,-0.02840042,0.04500502,-0.01206099,-0.002039566,0.01088406,-0.0005382923,-0.00155601,-0.003548684,0.002161535,-0.5246849624149995,1.1625120749999998,-3.7289420214,-0.3506373,0.01947779,-0.06296845
2023-10-31 11:08:27.784000000,-0.02836242,0.0447785,-0.01207182,-0.002520233,0.01842882,0.0003011259,-0.001790478,-0.004016779,0.002697875,-0.5264754404149995,1.1584952959999997,-3.7262441464,-0.3506673,0.01941145,-0.06293198
2023-10-31 11:08:27.798000128,-0.02814706,0.0446513,-0.01213263,-0.007530384,0.02166127,0.007513396,-0.002156711,-0.003819661,0.003333954,-0.5286321514149995,1.1546756349999996,-3.7229101924,-0.3507176,0.01939885,-0.06286692
2023-10-31 11:08:27.811000064,-0.0281166,0.04453969,-0.01225688,-0.01124567,0.01798247,0.006083655,-0.00233759,-0.003434014,0.003934664,-0.5309697414149995,1.1512416209999996,-3.7189755284,-0.3507831,0.01945302,-0.06277296
2023-10-31 11:08:27.824999936,-0.02799663,0.04454431,-0.01214503,-0.01520129,0.01583575,0.002858798,-0.002020154,-0.003023102,0.004406889,-0.5329898954149995,1.1482185189999996,-3.7145686394,-0.3508323,0.01949633,-0.06266803
2023-10-31 11:08:27.839000064,-0.02771737,0.04442862,-0.0120152,-0.02277009,0.01103783,-0.001561998,-0.002320024,-0.00309459,0.004813696,-0.5353099194149995,1.1451239289999997,-3.7097549434,-0.3508736,0.01944658,-0.06259704
2023-10-31 11:08:27.852999936,-0.02739526,0.04440418,-0.01193601,-0.02909835,0.01186344,-0.007001652,-0.002286401,-0.003152324,0.005364281,-0.5375963204149995,1.1419716049999995,-3.7043906624,-0.3509054,0.01939457,-0.06251132
2023-10-31 11:08:27.867000064,-0.02739115,0.04438779,-0.01170025,-0.02485597,0.009469001,-0.0127518,-0.002179544,-0.002681831,0.006336973,-0.5397758644149995,1.1392897739999996,-3.6980536894,-0.3509505,0.01935243,-0.06240179
2023-10-31 11:08:27.880999936,-0.02737309,0.04432899,-0.01171323,-0.01508768,0.004792477,-0.01106537,-0.002357712,-0.002101304,0.007303234,-0.5421335764149995,1.1371884699999997,-3.6907504554,-0.3510156,0.01933967,-0.06228039
2023-10-31 11:08:27.895000064,-0.02735913,0.04427186,-0.01170253,-0.01003519,0.005578025,-0.00723044,-0.002548407,-0.001589041,0.008070166,-0.5446819834149995,1.1355994289999998,-3.6826802894,-0.3510779,0.01933225,-0.062152
2023-10-31 11:08:27.908999936,-0.02732014,0.04414916,-0.01170151,-0.008142976,0.01015889,-0.004153382,-0.002457171,-0.001715339,0.008437009,-0.5471391544149995,1.1338840899999998,-3.6742432804,-0.3511103,0.01930607,-0.06203421
2023-10-31 11:08:27.923000064,-0.02723151,0.04406288,-0.01171354,-0.009697868,0.01182848,-0.001250495,-0.002396066,-0.001624553,0.009086045,-0.5495352204149995,1.1322595369999997,-3.6651572354,-0.3511446,0.01928524,-0.06189933
2023-10-31 11:08:27.936999936,-0.02732313,0.04400599,-0.01169907,-0.001432171,0.01030833,-0.002969728,-0.002556238,-0.001254215,0.009925283,-0.5520914584149995,1.1310053219999998,-3.6552319524,-0.3511685,0.01931919,-0.06170541
2023-10-31 11:08:27.951000064,-0.02743018,0.04389289,-0.01175013,0.004435306,0.01257995,-0.001114974,-0.002543905,-0.001170677,0.01068284,-0.5546353634149995,1.129834645,-3.6445491124,-0.351186,0.01935837,-0.06150097
2023-10-31 11:08:27.964999936,-0.02744704,0.04379657,-0.01183666,0.004253254,0.013672,0.003647611,-0.002727276,-0.001686958,0.01117575,-0.5573626394149995,1.1281476869999998,-3.6333733624,-0.3512196,0.01935574,-0.06131597
2023-10-31 11:08:27.977999872,-0.02747234,0.04370046,-0.0118457,0.004088789,0.01393012,0.002624646,-0.0028249,-0.002259409,0.01168184,-0.5601875394149995,1.1258882779999997,-3.6216915224,-0.3512625,0.0193113,-0.06114883
2023-10-31 11:08:27.992000000,-0.02752363,0.04372814,-0.01186793,0.005894792,0.007098622,0.002847033,-0.002848599,-0.002719104,0.01240698,-0.5630361384149996,1.1231691739999996,-3.6092845424,-0.3513028,0.01926796,-0.06095662
2023-10-31 11:08:28.006000128,-0.02748256,0.04369888,-0.0118526,0.001178657,0.005797239,0.001045794,-0.002490396,-0.002969634,0.01325641,-0.5655265344149996,1.1201995399999995,-3.5960281324,-0.3513307,0.01923942,-0.06073749
2023-10-31 11:08:28.020000000,-0.02742285,0.04372421,-0.01181897,-0.002696335,0.002370984,-0.001426021,-0.002262732,-0.00356873,0.01408462,-0.5677892664149996,1.1166308099999995,-3.5819435124,-0.3513587,0.0191931,-0.06050425
2023-10-31 11:08:28.035000064,-0.02721469,0.04380524,-0.01182048,-0.01229612,-0.00274899,0.001046312,-0.002068456,-0.003886496,0.01492449,-0.5698577224149997,1.1127443139999995,-3.5670190224,-0.351383,0.01913919,-0.06026654
2023-10-31 11:08:28.048000000,-0.02692166,0.043962,-0.01173865,-0.02053836,-0.00484638,0.004073369,-0.001896728,-0.003928835,0.01574878,-0.5717544504149996,1.1088154789999995,-3.5512702424,-0.3514053,0.01907946,-0.060018
2023-10-31 11:08:28.061000192,-0.02669365,0.04401213,-0.01186025,-0.02519646,-0.007425692,0.003046492,-0.001916045,-0.003704456,0.01651056,-0.5736704954149996,1.1051110229999996,-3.5347596824,-0.351432,0.01904496,-0.05975997
2023-10-31 11:08:28.075000064,-0.02634713,0.04408404,-0.0117637,-0.03107753,-0.008888094,0.006965416,-0.00203984,-0.003581144,0.01713808,-0.5757103354149996,1.1015298789999997,-3.5176216024,-0.3514596,0.01900907,-0.05946862
2023-10-31 11:08:28.089999872,-0.02609909,0.04406124,-0.01187763,-0.03438469,-0.008430496,0.006483851,-0.002320675,-0.004224928,0.01731266,-0.5780310104149996,1.0973049509999997,-3.5003089424,-0.3514943,0.01896011,-0.05919218
2023-10-31 11:08:28.104000000,-0.02564351,0.04415303,-0.01192573,-0.04585936,-0.004634679,0.01378223,-0.002479454,-0.00452692,0.0174661,-0.5805104644149996,1.0927780309999997,-3.4828428424,-0.3515322,0.01889666,-0.05893306
2023-10-31 11:08:28.117000192,-0.02537042,0.04423758,-0.01198739,-0.04661734,-0.00742992,0.01653358,-0.003043216,-0.00472845,0.01767727,-0.5835536804149997,1.0880495809999997,-3.4651655724,-0.3515872,0.018831,-0.05867631
2023-10-31 11:08:28.131000064,-0.02499218,0.04427302,-0.01195277,-0.04854221,-0.004754568,0.01084836,-0.003119116,-0.004143973,0.01797399,-0.5866727964149997,1.0839056079999998,-3.4471915823999995,-0.3516328,0.01879632,-0.0584065
2023-10-31 11:08:28.144999936,-0.02482828,0.04444069,-0.01196767,-0.03977252,-0.007855837,0.00640104,-0.003242393,-0.003674912,0.01834998,-0.5899151894149997,1.080230696,-3.4288416023999995,-0.3516837,0.01879387,-0.05810156
2023-10-31 11:08:28.157999872,-0.0244376,0.04445693,-0.01197571,-0.03927751,-0.008670039,0.009447977,-0.003183044,-0.002589586,0.01881587,-0.5930982334149997,1.0776411099999998,-3.4100257323999994,-0.3517297,0.0188188,-0.05779675
2023-10-31 11:08:28.173000192,-0.02437697,0.04469019,-0.01199195,-0.03661674,-0.01166584,0.007133913,-0.003197503,-0.002075349,0.01897727,-0.5962957364149997,1.0755657609999998,-3.3910484623999992,-0.3517742,0.01880478,-0.05751273
2023-10-31 11:08:28.187000064,-0.02433529,0.04481351,-0.01181513,-0.02613376,-0.01668821,0.0007488583,-0.003183627,-0.000872197,0.01946647,-0.5994793634149996,1.0746935639999995,-3.3715819923999995,-0.3518183,0.01880689,-0.05722361
2023-10-31 11:08:28.200999936,-0.02460997,0.0448952,-0.01170307,-0.007578308,-0.01853954,-0.003877935,-0.003109545,0.0008690648,0.02053604,-0.6025889084149997,1.0755626287999998,-3.3510459524,-0.3518626,0.01889611,-0.05686989
2023-10-31 11:08:28.213999872,-0.02476653,0.0449656,-0.01183012,0.009887902,-0.01593492,-0.003818492,-0.003265176,0.001890082,0.0210616,-0.6058540844149997,1.0774527107999998,-3.3299843523999995,-0.3518768,0.01889272,-0.05656108
2023-10-31 11:08:28.228000000,-0.02499956,0.04507998,-0.01180427,0.01396358,-0.01720933,-0.004816655,-0.00388568,0.002104528,0.02139863,-0.6097397644149997,1.0795572388,-3.3085857224,-0.351939,0.01888303,-0.05624802
2023-10-31 11:08:28.242000128,-0.02494328,0.04515776,-0.01200411,0.01307969,-0.01664909,0.002178548,-0.004231988,0.001975803,0.02135038,-0.6139717524149997,1.0815330418,-3.2872353424,-0.3519773,0.01894,-0.05594391
2023-10-31 11:08:28.256000000,-0.02487581,0.04547647,-0.01198608,0.008128371,-0.02075609,0.01196406,-0.004407917,0.001570736,0.02106329,-0.6183796694149997,1.0831037778,-3.2661720523999995,-0.3520758,0.01896694,-0.05565808
2023-10-31 11:08:28.269999872,-0.02460772,0.04567257,-0.01198727,-0.006570562,-0.02377597,0.003532723,-0.004803013,0.0009784079,0.02042633,-0.6231826824149996,1.0840821856999998,-3.2457457224,-0.3521526,0.01900411,-0.05533013
2023-10-31 11:08:28.284000000,-0.0244483,0.04584008,-0.01190038,-0.02069371,-0.02450038,0.00346766,-0.00496396,-0.0001418472,0.01950741,-0.6281466424149996,1.0839403384999995,-3.2262383124,-0.3522508,0.01901518,-0.05503488
2023-10-31 11:08:28.298000128,-0.02419076,0.04612795,-0.01188156,-0.02835127,-0.02791915,-0.001747409,-0.005454902,-0.0009901574,0.01827933,-0.6336015444149996,1.0829501810999995,-3.2079589824,-0.3523271,0.01905719,-0.0547314
2023-10-31 11:08:28.312000000,-0.02405594,0.04627579,-0.01158435,-0.02737803,-0.02746474,-0.008498603,-0.005507195,-0.0009974944,0.0174484,-0.6391087394149996,1.0819526866999998,-3.1905105823999995,-0.352407,0.01902437,-0.05449729
2023-10-31 11:08:28.324999936,-0.02410265,0.04653367,-0.01142219,-0.02110935,-0.03221909,-0.01417284,-0.005741791,-0.0007470504,0.0163546,-0.6448505304149996,1.0812056362999998,-3.1741559823999994,-0.3524946,0.01900801,-0.05427677
2023-10-31 11:08:28.340000000,-0.02416178,0.04677388,-0.01125681,-0.007639469,-0.0340242,-0.01695039,-0.005872837,-0.0008141719,0.01536917,-0.6507233674149996,1.0803914643999997,-3.1587868124,-0.3525936,0.0189642,-0.05404636
2023-10-31 11:08:28.352999936,-0.02448259,0.04696736,-0.01109591,0.003674117,-0.0344183,-0.0200849,-0.006165835,-0.0004673856,0.01441298,-0.6568892024149996,1.0799240787999995,-3.1443738323999995,-0.3527011,0.01893404,-0.05383163
2023-10-31 11:08:28.368000000,-0.02482406,0.04709825,-0.01087954,0.01704008,-0.03129125,-0.02490082,-0.006445137,-0.0003279627,0.01336154,-0.6633343394149996,1.0795961160999998,-3.1310122923999995,-0.3528016,0.01891406,-0.05365615
2023-10-31 11:08:28.380999936,-0.02487653,0.04738736,-0.01083911,0.02109636,-0.02815395,-0.02144435,-0.00674016,-3.628305e-05,0.01240293,-0.6700744994149996,1.0795598330499998,-3.1186093623999995,-0.3529015,0.01891722,-0.05348752
2023-10-31 11:08:28.395000064,-0.02497047,0.04739186,-0.01075,0.0204594,-0.02190809,-0.0151918,-0.006734289,-0.0004028996,0.01108287,-0.6768087884149996,1.0791569334499995,-3.1075264923999995,-0.353,0.01890688,-0.05336321
2023-10-31 11:08:28.408999936,-0.02507057,0.0476599,-0.01073631,0.01534097,-0.02447531,-0.007136828,-0.007108491,-0.0009876697,0.009732036,-0.6839172794149996,1.0781692637499998,-3.0977944563999995,-0.3531277,0.01895032,-0.05323569
2023-10-31 11:08:28.423000064,-0.02489289,0.04772523,-0.01084058,0.006290997,-0.02061885,-0.01013821,-0.007063624,-0.0009833488,0.008755471,-0.6909809034149996,1.0771859149499998,-3.0890389854,-0.3532414,0.01900417,-0.053126
2023-10-31 11:08:28.436000000,-0.02509447,0.0477604,-0.01072643,0.007103024,-0.01471418,-0.007591852,-0.007033948,-0.0008500809,0.007828414,-0.6980148514149996,1.0763358340499998,-3.0812105714,-0.3533443,0.01900669,-0.05303603
2023-10-31 11:08:28.450000128,-0.02513018,0.04789045,-0.01079167,0.007241402,-0.01523594,-0.001035038,-0.007243115,-0.0004728088,0.007157302,-0.7052579664149996,1.07586302525,-3.0740532694,-0.3534504,0.01901442,-0.05294334
2023-10-31 11:08:28.464000000,-0.02525082,0.04805663,-0.01101137,0.01026533,-0.01824108,0.009957683,-0.00736639,0.0001900092,0.006421289,-0.7126243564149995,1.07605303445,-3.0676319803999994,-0.3535733,0.01904441,-0.05284505
2023-10-31 11:08:28.477999872,-0.02534248,0.04833412,-0.01089282,0.01213177,-0.02481316,0.004533377,-0.007336,0.001283367,0.005690443,-0.7199603564149996,1.07733640145,-3.061941537399999,-0.3537112,0.01908073,-0.05272377
2023-10-31 11:08:28.492000000,-0.02555328,0.04857978,-0.01105157,0.01585795,-0.03125413,-0.002294037,-0.007216327,0.002393643,0.005162409,-0.7271766834149995,1.07973004445,-3.056779128399999,-0.3538401,0.01914884,-0.05261298
2023-10-31 11:08:28.506000128,-0.02583591,0.04876012,-0.01078106,0.02479804,-0.03225754,-0.006396794,-0.007152658,0.003407259,0.004768518,-0.7343293414149995,1.08313730345,-3.052010610399999,-0.3539367,0.01920451,-0.05254423
2023-10-31 11:08:28.520000000,-0.02626578,0.04901502,-0.0107499,0.03183557,-0.03088327,-0.01513547,-0.007292726,0.004391504,0.004549801,-0.7416220674149995,1.08752880745,-3.047460809399999,-0.3540399,0.01928823,-0.05247088
2023-10-31 11:08:28.533999872,-0.02659803,0.04913303,-0.01047075,0.0420143,-0.02987586,-0.01895848,-0.007717715,0.004674679,0.00408667,-0.7493397824149994,1.09220348645,-3.043374139399999,-0.3541577,0.01936148,-0.05242221
2023-10-31 11:08:28.546999808,-0.0269174,0.04919934,-0.01049502,0.04544668,-0.02697629,-0.01881682,-0.007919365,0.005017187,0.004140054,-0.7572591474149994,1.09722067345,-3.039234085399999,-0.3542724,0.01948377,-0.05237117
2023-10-31 11:08:28.561000192,-0.02729172,0.04938123,-0.01029423,0.04747326,-0.02346156,-0.02053736,-0.008385382,0.005257828,0.004563403,-0.7656445294149995,1.10247850145,-3.034670682399999,-0.3543992,0.01959051,-0.05229796
2023-10-31 11:08:28.575000064,-0.02757436,0.0493893,-0.01023836,0.04830245,-0.01521189,-0.01858033,-0.008692198,0.004794706,0.005237129,-0.7743367274149995,1.10727320745,-3.0294335533999988,-0.3545268,0.01964494,-0.05221022
2023-10-31 11:08:28.588999936,-0.02783309,0.0492799,-0.01026849,0.04684306,-0.008924291,-0.01668711,-0.009103892,0.003448089,0.005809877,-0.7834406194149994,1.11072129645,-3.023623676399999,-0.354663,0.01966568,-0.05212421
2023-10-31 11:08:28.604000000,-0.02811712,0.04924271,-0.01014731,0.03808273,-0.002210449,-0.01338365,-0.009381084,0.001827425,0.006348788,-0.7928217034149995,1.11254872145,-3.017274888399999,-0.3548065,0.01967657,-0.05200683
2023-10-31 11:08:28.617000192,-0.02809068,0.04922819,-0.01014496,0.02399182,0.001604994,-0.01430253,-0.00980194,0.0001355899,0.006622246,-0.8026236434149995,1.11268431135,-3.010652642399999,-0.3549594,0.01967253,-0.05188594
2023-10-31 11:08:28.631000064,-0.02810212,0.04906175,-0.01006403,0.01418874,0.008365318,-0.01079526,-0.00980266,-0.001235142,0.006753718,-0.8124263034149994,1.11144916935,-3.0038989243999987,-0.3550997,0.01963342,-0.05178886
2023-10-31 11:08:28.644999936,-0.02801869,0.04901022,-0.01007788,0.004330583,0.008157209,-0.005680057,-0.01002416,-0.002090005,0.006697844,-0.8224504634149994,1.10935916435,-2.9972010803999987,-0.3552438,0.01958481,-0.05170016
2023-10-31 11:08:28.660000000,-0.02793857,0.04888779,-0.01002186,-0.002277172,0.01131833,-0.007020217,-0.01005043,-0.002564132,0.006654347,-0.8325008934149994,1.10679503235,-2.9905467333999987,-0.3553842,0.0195375,-0.05161666
2023-10-31 11:08:28.673000192,-0.02788504,0.04876733,-0.01010734,-0.003019864,0.014281,-0.0005499221,-0.009978397,-0.002790896,0.006609166,-0.8424792904149995,1.10400413635,-2.9839375673999986,-0.3555261,0.01954211,-0.05154019
2023-10-31 11:08:28.688000000,-0.02779117,0.0486334,-0.0101207,-0.006128492,0.01676936,-0.0004730487,-0.01005059,-0.002533041,0.006613297,-0.8525298804149994,1.10147109535,-2.9773242703999987,-0.355673,0.01955592,-0.05146295
2023-10-31 11:08:28.700999936,-0.02772442,0.04848969,-0.01016826,-0.006780301,0.01863418,0.001232997,-0.01002587,-0.002394875,0.006637705,-0.8625557504149994,1.09907622035,-2.9706865653999985,-0.3558135,0.01954164,-0.05138139
2023-10-31 11:08:28.713999872,-0.0276901,0.04838678,-0.01024228,-0.007430889,0.02049958,0.002937546,-0.009790605,-0.002411964,0.006666576,-0.8723463554149994,1.09666425635,-2.9640199893999983,-0.3559447,0.01951247,-0.05129436
2023-10-31 11:08:28.728000000,-0.02754625,0.04815051,-0.01030858,-0.01112911,0.01912224,0.001021426,-0.009825511,-0.002225088,0.00650118,-0.8821718664149993,1.09443916835,-2.9575188093999984,-0.3560842,0.01948742,-0.05122301
2023-10-31 11:08:28.742000128,-0.027453,0.04806775,-0.01010742,-0.01132723,0.01937086,6.877262e-06,-0.00990083,-0.002226164,0.006232755,-0.8920726964149993,1.0922130043499998,-2.9512860543999984,-0.3562315,0.01943493,-0.05114929
2023-10-31 11:08:28.756000000,-0.02722666,0.04800451,-0.01012198,-0.0120741,0.0180848,-0.003525176,-0.009857704,-0.002424813,0.005788887,-0.9019304004149992,1.0897881913499998,-2.9454971673999983,-0.3563735,0.01938998,-0.05108374
2023-10-31 11:08:28.769999872,-0.02715808,0.04788083,-0.01000419,-0.01593894,0.01928005,-0.007002044,-0.009432962,-0.002665227,0.005311793,-0.9113633624149992,1.0871229643499998,-2.940185374399998,-0.3564976,0.01934095,-0.05102727
2023-10-31 11:08:28.784000000,-0.02713339,0.04778704,-0.009841602,-0.01497183,0.01839394,-0.0129913,-0.009203188,-0.002931109,0.0047636,-0.9205665504149992,1.0841918553499998,-2.935421774399998,-0.3566229,0.01928422,-0.05097926
2023-10-31 11:08:28.798000128,-0.02707208,0.04767102,-0.009811217,-0.008825338,0.01472095,-0.01390417,-0.008855283,-0.002772645,0.004242237,-0.9294218334149992,1.0814192103499998,-2.931179537399998,-0.3567409,0.01928237,-0.05092977
2023-10-31 11:08:28.812000000,-0.02711999,0.04749402,-0.009693268,-0.005512245,0.01429534,-0.01348955,-0.008425613,-0.002261267,0.003909718,-0.9378474464149992,1.0791579433499998,-2.927269819399998,-0.3568524,0.01933854,-0.05087141
2023-10-31 11:08:28.824999936,-0.02712981,0.04739258,-0.009657966,-0.001820758,0.01568064,-0.01155903,-0.007973444,-0.002218667,0.003590406,-0.9458208904149992,1.07693927635,-2.923679413399998,-0.3569566,0.01938712,-0.05081388
2023-10-31 11:08:28.840000000,-0.02719058,0.04719293,-0.009612763,-0.001619908,0.01774137,-0.01107541,-0.007394954,-0.002491513,0.003118325,-0.9532158444149992,1.0744477633499998,-2.920561088399998,-0.3570488,0.01934307,-0.05079391
2023-10-31 11:08:28.854000128,-0.02718561,0.04711449,-0.009567538,0.002147892,0.01783951,-0.008362814,-0.006931966,-0.00283918,0.002580493,-0.9601478104149992,1.0716085833499998,-2.917980595399998,-0.3571356,0.01929337,-0.05077479
2023-10-31 11:08:28.868000000,-0.02725924,0.0468877,-0.009619015,0.005090747,0.02236761,-0.005497539,-0.006372216,-0.003381854,0.002141786,-0.9665200264149992,1.0682267293499998,-2.915838809399998,-0.3571987,0.01923797,-0.05076131
2023-10-31 11:08:28.881999872,-0.02724231,0.0467006,-0.009565951,0.005639375,0.02391673,-0.002962521,-0.005817443,-0.003434681,0.00190616,-0.9723374694149992,1.0647920483499995,-2.913932649399998,-0.3572426,0.01918593,-0.05073811
2023-10-31 11:08:28.896000000,-0.02743408,0.04627278,-0.009387289,0.01391345,0.03093129,-0.01268493,-0.005350269,-0.003239441,0.002203014,-0.9776877384149992,1.0615526073499997,-2.911729635399998,-0.3572866,0.01913268,-0.05071617
2023-10-31 11:08:28.908999936,-0.02767384,0.04593801,-0.009537037,0.01604292,0.04221739,-0.01021936,-0.004868831,-0.002538187,0.002534304,-0.9825565694149994,1.0590144203499996,-2.909195331399998,-0.3573443,0.01912357,-0.05069598
2023-10-31 11:08:28.923000064,-0.02784007,0.0456416,-0.009709051,0.02064007,0.04463703,-0.003705119,-0.004849654,-0.002109559,0.002751128,-0.9874062234149994,1.0569048613499996,-2.906444203399998,-0.3574112,0.01911433,-0.05067229
2023-10-31 11:08:28.936999936,-0.02777009,0.0453172,-0.009972813,0.01776874,0.04935772,0.01473842,-0.003977783,-0.001405939,0.002962921,-0.9913840064149994,1.0554989223499995,-2.9034812823999983,-0.3574453,0.01918321,-0.05061617
2023-10-31 11:08:28.951000064,-0.02783346,0.04501402,-0.01008741,0.01609114,0.04682466,0.0121618,-0.0033823,-0.0008496345,0.002771378,-0.9947663064149992,1.0546492878499996,-2.9007099043999984,-0.3574764,0.01925843,-0.05056409
2023-10-31 11:08:28.964999936,-0.02767572,0.04467806,-0.01003227,0.003545604,0.04895702,0.008135911,-0.002481942,-6.280238e-05,0.002316941,-0.9972482484149991,1.0545864854699996,-2.8983929633999983,-0.3574906,0.01931163,-0.05054075
2023-10-31 11:08:28.979000064,-0.02758274,0.04414454,-0.009926915,-0.006895954,0.05014508,-0.002095845,-0.001796516,0.0003802157,0.001582805,-0.9990447644149992,1.0549667011699997,-2.8968101583999983,-0.3575042,0.01931927,-0.05056863
2023-10-31 11:08:28.992000000,-0.02749616,0.04402131,-0.009822218,-0.0124686,0.04777358,-0.008456529,-0.0009616239,0.001028523,0.0009212721,-1.0000063883149992,1.0559952241699997,-2.8958888862999985,-0.3575013,0.01933916,-0.05058084
2023-10-31 11:08:29.006000128,-0.02753696,0.04376414,-0.009600171,-0.008853262,0.0405243,-0.01645663,-0.0004305699,0.001570405,0.0002920953,-1.0004369582149992,1.0575656291699995,-2.8955967909999987,-0.3574902,0.01933405,-0.05063571
2023-10-31 11:08:29.020000000,-0.0277157,0.04357767,-0.009440398,0.0001766974,0.03591193,-0.01910669,0.0002583034,0.002001727,-0.0002886075,-1.0001786548149991,1.0595673561699994,-2.8958853984999986,-0.3574635,0.01933659,-0.05069274
2023-10-31 11:08:29.033999872,-0.02780189,0.0432674,-0.009425115,0.006896076,0.03611786,-0.01791696,0.0009626158,0.002457907,-0.0003255679,-0.9992160390149992,1.0620252631699991,-2.896210966399998,-0.3574339,0.01937275,-0.0507253
2023-10-31 11:08:29.048000000,-0.02796831,0.04297307,-0.009405401,0.01709731,0.03797894,-0.01575455,0.001770737,0.002795554,-0.0003602722,-0.9974453020149991,1.064820817169999,-2.8965712385999987,-0.3573931,0.01941677,-0.05075053
2023-10-31 11:08:29.062000128,-0.02824331,0.04257521,-0.009371748,0.02479782,0.04174197,-0.01605495,0.002623024,0.002857836,-0.0002541776,-0.9948222780149992,1.067678653169999,-2.8968254161999987,-0.3573399,0.01946825,-0.05076569
2023-10-31 11:08:29.076000000,-0.02829857,0.04231155,-0.009570863,0.02583752,0.04208256,-0.003869365,0.003314904,0.002533374,-0.0003943144,-0.9915073740149992,1.0702120271699993,-2.8972197305999985,-0.357277,0.01955536,-0.05074683
2023-10-31 11:08:29.089999872,-0.02847049,0.04197049,-0.009717431,0.0223523,0.04547573,0.006419022,0.004272826,0.002145679,-0.0004547251,-0.9872345480149992,1.0723577061699994,-2.8976744556999985,-0.3571992,0.01963569,-0.05073412
2023-10-31 11:08:29.104000000,-0.02870541,0.04165304,-0.009881813,0.02395384,0.04337673,0.01008633,0.005133563,0.00160946,-0.0003707127,-0.9821009850149992,1.0739671661699994,-2.8980451683999986,-0.3571078,0.01965735,-0.05075341
2023-10-31 11:08:29.118000128,-0.02868551,0.04154018,-0.01007207,0.02232761,0.04039226,0.01406837,0.00624773,0.00150005,-0.0001862368,-0.9758532550149992,1.0754672161699994,-2.8982314051999984,-0.3569959,0.01968843,-0.05075942
2023-10-31 11:08:29.132999936,-0.02885459,0.04122487,-0.01013476,0.02003554,0.03844333,0.0139274,0.007385654,0.001375525,0.0003504506,-0.9684676010149992,1.0768427411699997,-2.8978809545999984,-0.3568813,0.01970944,-0.05076238
2023-10-31 11:08:29.145999872,-0.0288629,0.04109082,-0.01057349,0.01922604,0.03059144,0.02436703,0.007871742,0.0008588655,0.0003725097,-0.9605958590149992,1.0777016066699994,-2.8975084448999984,-0.3567836,0.01973572,-0.05076546
2023-10-31 11:08:29.158999808,-0.02898233,0.04107431,-0.01079069,0.01671009,0.02383603,0.03085756,0.008524714,0.001092645,0.0004533711,-0.9520711450149992,1.078794251669999,-2.8970550737999985,-0.3566698,0.01976793,-0.05075778
2023-10-31 11:08:29.173000192,-0.02903,0.04106861,-0.01087286,0.01593349,0.01917076,0.02760905,0.009187851,0.001834914,0.0002735984,-0.9428832940149992,1.0806291656699991,-2.8967814753999983,-0.356527,0.01981505,-0.05075815
2023-10-31 11:08:29.187000064,-0.0289215,0.04096115,-0.01106454,0.007506451,0.01539369,0.02352277,0.00942459,0.003285642,-0.000162805,-0.9334587040149992,1.0839148076699994,-2.8969442803999983,-0.3563891,0.0199043,-0.0507757
2023-10-31 11:08:29.201999872,-0.02899929,0.04082924,-0.01112486,0.005931733,0.01749713,0.01983353,0.009816544,0.00463563,-0.0008439333,-0.9236421600149992,1.0885504376699993,-2.8977882136999984,-0.356212,0.0200315,-0.05081601
2023-10-31 11:08:29.214999808,-0.02894585,0.0407359,-0.0111977,0.002286951,0.01419982,0.01180134,0.009987654,0.006364154,-0.001725336,-0.9136545060149992,1.0949145916699992,-2.899513549699998,-0.356024,0.0202043,-0.05087279
2023-10-31 11:08:29.229000192,-0.02901734,0.04076535,-0.01135236,0.006767676,0.007542667,0.01505656,0.01017626,0.007999266,-0.002841794,-0.9034782460149992,1.102913857669999,-2.9023553436999983,-0.3558449,0.02039189,-0.05094108
2023-10-31 11:08:29.243000064,-0.02912107,0.0406878,-0.01142395,0.01075073,0.008843141,0.01256075,0.01052275,0.01024454,-0.003788913,-0.8929554960149991,1.113158397669999,-2.9061442566999984,-0.3556905,0.02058854,-0.05101968
2023-10-31 11:08:29.256999936,-0.02926202,0.04064006,-0.01150034,0.01568868,0.00904698,0.00965617,0.01043043,0.01303611,-0.005114023,-0.8825250660149991,1.126194507669999,-2.9112582796999984,-0.3555476,0.02083505,-0.05112351
2023-10-31 11:08:29.270999808,-0.02964742,0.04050434,-0.01163003,0.02806248,0.01177289,0.01181608,0.01058709,0.01586803,-0.006158086,-0.8719379760149991,1.142062537669999,-2.9174163656999985,-0.3554139,0.02125202,-0.05125993
2023-10-31 11:08:29.285000192,-0.03004685,0.04042113,-0.01182261,0.04314133,0.0114522,0.01173681,0.01057162,0.01910636,-0.007325215,-0.8613663560149991,1.1611688976699992,-2.9247415806999983,-0.3552543,0.02164635,-0.05135447
2023-10-31 11:08:29.299000064,-0.03063737,0.04029188,-0.01199943,0.05876405,0.01143141,0.0149862,0.01068147,0.02221674,-0.008321943,-0.8506848860149991,1.1833856376699992,-2.9330635236999982,-0.3551143,0.02203446,-0.05150001
2023-10-31 11:08:29.312999936,-0.03138828,0.04019037,-0.01215724,0.07783161,0.01238356,0.01241912,0.01068013,0.02515155,-0.00921127,-0.8400047560149991,1.208537187669999,-2.9422747936999984,-0.3549644,0.0224591,-0.0516393
2023-10-31 11:08:29.325999872,-0.03234098,0.04003584,-0.01224659,0.09958735,0.01386739,0.006274617,0.01072724,0.02763074,-0.01012378,-0.8292775160149991,1.236167927669999,-2.9523985736999983,-0.3548119,0.02288161,-0.05182929
2023-10-31 11:08:29.340000000,-0.03316407,0.03989148,-0.01237692,0.1098253,0.01599255,0.00197205,0.01097126,0.03010998,-0.01112183,-0.8183062560149991,1.266277907669999,-2.9635204036999983,-0.3546662,0.02336782,-0.05202804
2023-10-31 11:08:29.354000128,-0.03403843,0.03964677,-0.01257974,0.118271,0.01772623,0.0001042498,0.0114481,0.03201719,-0.01197719,-0.8068581560149991,1.298295097669999,-2.9754975936999983,-0.3544645,0.02386218,-0.05223806
2023-10-31 11:08:29.369999872,-0.03504555,0.03965867,-0.01266569,0.1273491,0.0173234,0.003045989,0.01207108,0.03316722,-0.01312588,-0.7947870760149991,1.331462317669999,-2.9886234736999984,-0.354328,0.02432984,-0.05246411
2023-10-31 11:08:29.381999872,-0.03587526,0.03949454,-0.012782,0.1311308,0.01495878,0.007531221,0.01272448,0.03349351,-0.01450972,-0.7820625960149991,1.364955827669999,-3.0031331936999983,-0.3541289,0.02481143,-0.05270902
2023-10-31 11:08:29.396000000,-0.036746,0.03951678,-0.01313074,0.1304455,0.01321093,0.01052201,0.01345271,0.03355923,-0.01576604,-0.768609886014999,1.398515057669999,-3.0188992336999982,-0.3539355,0.02530555,-0.0529643
2023-10-31 11:08:29.410000128,-0.03790298,0.0393717,-0.01336087,0.1436607,0.01023492,0.01355243,0.0141864,0.03365195,-0.01675571,-0.754423486014999,1.432167007669999,-3.035654943699998,-0.3536786,0.02582793,-0.05319777
2023-10-31 11:08:29.424000000,-0.03932299,0.03927124,-0.01359107,0.165263,0.006726317,0.01528883,0.01498952,0.03514966,-0.01674846,-0.739433966014999,1.4673166676699991,-3.0524034036999983,-0.353405,0.02640462,-0.05341037
2023-10-31 11:08:29.437999872,-0.04118628,0.03932187,-0.01391278,0.2024873,-0.002486438,0.01585758,0.01573616,0.03723947,-0.01592266,-0.723697806014999,1.5045561376699992,-3.0683260636999985,-0.3531443,0.02700552,-0.05360207
2023-10-31 11:08:29.451000064,-0.04310149,0.03952876,-0.01433718,0.2360083,-0.00983715,0.01948552,0.01650665,0.03826657,-0.01553155,-0.707191156014999,1.5428227076699992,-3.0838576136999984,-0.3529332,0.02750298,-0.05384416
2023-10-31 11:08:29.466000128,-0.04448062,0.03956482,-0.01468412,0.2351161,-0.01481191,0.02312401,0.01693048,0.03632509,-0.01600035,-0.6902606760149991,1.5791477976699992,-3.0998579636999986,-0.3527029,0.0279438,-0.05407059
2023-10-31 11:08:29.479000064,-0.04566234,0.03975487,-0.01501294,0.2128993,-0.01534875,0.02607667,0.0170126,0.03299587,-0.01669165,-0.673248076014999,1.6121436676699992,-3.1165496136999984,-0.3525388,0.02836273,-0.05429105
2023-10-31 11:08:29.492999936,-0.04675003,0.03981054,-0.01536941,0.1935184,-0.01572908,0.0265992,0.01672808,0.02915304,-0.01741122,-0.656519996014999,1.6412967076699991,-3.1339608336999984,-0.3523455,0.02876085,-0.05450439
2023-10-31 11:08:29.507000064,-0.04770234,0.03999028,-0.01580357,0.1758891,-0.01587833,0.03121659,0.01661326,0.02602747,-0.01774918,-0.639906736014999,1.6673241776699992,-3.1517100136999985,-0.3521253,0.02911266,-0.05473951
2023-10-31 11:08:29.520999936,-0.04858486,0.04007316,-0.01599054,0.156722,-0.01635661,0.02619851,0.01621579,0.02356222,-0.01786649,-0.6236909460149991,1.6908863976699993,-3.1695765036999983,-0.3519168,0.02940426,-0.05499516
2023-10-31 11:08:29.536000000,-0.04904904,0.04017407,-0.01631937,0.1293724,-0.01528011,0.03025472,0.01564925,0.02073894,-0.01811196,-0.6080416960149991,1.7116253376699992,-3.1876884636999985,-0.3516756,0.02962905,-0.05527413
2023-10-31 11:08:29.548000000,-0.04923927,0.04007703,-0.01632008,0.09324519,-0.01296502,0.02597148,0.0148303,0.01854556,-0.01902202,-0.5932113960149992,1.7301708976699992,-3.2067104836999984,-0.3514262,0.02985102,-0.05556332
2023-10-31 11:08:29.562000128,-0.04974267,0.04001388,-0.01617365,0.07205535,-0.0004726321,0.008051324,0.01422843,0.01644816,-0.0190217,-0.5789829660149992,1.7466190576699991,-3.2257321836999986,-0.3512653,0.03000323,-0.05586142
2023-10-31 11:08:29.576000000,-0.0500151,0.03981066,-0.01631951,0.05859197,0.006225244,0.00124226,0.01297615,0.01561092,-0.01907113,-0.5660068160149992,1.7622299776699992,-3.2448033136999985,-0.3510778,0.03022178,-0.05612772
2023-10-31 11:08:29.591000064,-0.0504683,0.03960672,-0.01639358,0.05631159,0.01713849,-0.005434106,0.01222152,0.01538777,-0.01877802,-0.5537852960149993,1.7776177476699992,-3.2635813336999986,-0.3509293,0.03044386,-0.05641169
2023-10-31 11:08:29.604000000,-0.05069499,0.03941569,-0.01642504,0.05173361,0.02161882,0.004646899,0.01138496,0.01523194,-0.01882291,-0.5424003360149993,1.7928496876699993,-3.2824042436999985,-0.3507875,0.03070787,-0.05666988
2023-10-31 11:08:29.618000128,-0.05100571,0.03928939,-0.01684969,0.05224639,0.0269694,0.01195377,0.0110705,0.01506465,-0.0189479,-0.5313298360149993,1.8079143376699995,-3.301352143699998,-0.3506267,0.03100153,-0.05693751
2023-10-31 11:08:29.632999936,-0.05135076,0.03912243,-0.01680143,0.05078362,0.02636203,0.009869376,0.01101991,0.01592193,-0.01887289,-0.5203099260149993,1.8238362676699995,-3.3202250336999986,-0.3504615,0.03129923,-0.05719393
2023-10-31 11:08:29.645999872,-0.05188844,0.03896597,-0.01701955,0.06103915,0.01868214,0.01056076,0.01059676,0.01674918,-0.01896205,-0.5097131660149993,1.8405854476699992,-3.3391870836999984,-0.3503041,0.0315549,-0.05746468
2023-10-31 11:08:29.660000000,-0.05241563,0.03885093,-0.01695183,0.06629018,0.02047597,0.001366621,0.01043272,0.01740857,-0.01903272,-0.4992804460149992,1.8579940176699992,-3.358219803699998,-0.3501943,0.03177604,-0.05775378
2023-10-31 11:08:29.674000128,-0.05292836,0.03870296,-0.01702411,0.0679846,0.01240831,-0.004395938,0.009984283,0.01704122,-0.01940032,-0.4892961630149993,1.8750352376699992,-3.377620123699998,-0.3500268,0.03193532,-0.05804832
2023-10-31 11:08:29.688000000,-0.05361226,0.03866401,-0.01688903,0.0756501,0.01247258,-0.01091103,0.01011916,0.01668391,-0.01975158,-0.4791770030149992,1.8917191476699995,-3.397371703699998,-0.3499012,0.03210541,-0.05832833
2023-10-31 11:08:29.701999872,-0.05455504,0.03854802,-0.01684551,0.09137306,0.01111765,-0.01325769,0.009851106,0.01725315,-0.01979019,-0.4693258970149992,1.9089722976699992,-3.417161893699998,-0.349779,0.03233812,-0.05863844
2023-10-31 11:08:29.714999808,-0.05549101,0.03826863,-0.01672945,0.1132632,0.0140328,-0.02012675,0.009071892,0.01752646,-0.01972711,-0.4602540050149992,1.9264987576699992,-3.436889003699998,-0.3496832,0.03258197,-0.05890916
2023-10-31 11:08:29.729000192,-0.05657992,0.03791207,-0.01662566,0.1313269,0.02386257,-0.02771178,0.00839176,0.01707305,-0.01948567,-0.4518622450149992,1.94357180767,-3.456374673699998,-0.3495936,0.03278623,-0.05918894
2023-10-31 11:08:29.743000064,-0.05764787,0.03743905,-0.01650248,0.1409828,0.03558233,-0.03499664,0.007364819,0.0157459,-0.01897295,-0.4444974260149992,1.9593177076699992,-3.475347623699998,-0.3495857,0.03294573,-0.05943082
2023-10-31 11:08:29.756999936,-0.05840155,0.03687614,-0.01653809,0.1365113,0.04912496,-0.03689171,0.006348207,0.01426329,-0.01788727,-0.4381492190149992,1.9735809976699992,-3.493234893699998,-0.3495458,0.03311098,-0.05964036
2023-10-31 11:08:29.770999808,-0.05930648,0.03634173,-0.0165597,0.127749,0.06103623,-0.02991929,0.005649043,0.01214424,-0.01640465,-0.4325001760149992,1.9857252376699992,-3.5096395436999983,-0.3494986,0.03318426,-0.05987625
2023-10-31 11:08:29.785000192,-0.0597344,0.03570339,-0.01638743,0.1143727,0.06750711,-0.03704501,0.005285379,0.01001227,-0.01465269,-0.4272147970149992,1.9957375076699992,-3.5242922336999984,-0.3494021,0.03336402,-0.0601089
2023-10-31 11:08:29.799000064,-0.06042903,0.03515121,-0.01606596,0.1039677,0.06922431,-0.04312539,0.005068487,0.008436864,-0.01288857,-0.4221463100149992,2.004174371669999,-3.5371808036999983,-0.3493381,0.03341217,-0.06030083
2023-10-31 11:08:29.812000000,-0.06077066,0.03459758,-0.01607701,0.0873036,0.06706666,-0.03795835,0.005133815,0.007077126,-0.01101637,-0.4170124950149992,2.011251497669999,-3.5481971736999984,-0.3492621,0.03344379,-0.06048695
2023-10-31 11:08:29.825999872,-0.06114681,0.03442293,-0.01619013,0.0701256,0.05640601,-0.02302641,0.005317131,0.004962874,-0.009721354,-0.4116953640149992,2.016214371669999,-3.5579185276999983,-0.3491794,0.03344249,-0.06064048
2023-10-31 11:08:29.841000192,-0.06118849,0.03421697,-0.01631335,0.04999321,0.04445158,-0.01322034,0.005855596,0.002801253,-0.008300538,-0.4058397680149992,2.019015624669999,-3.566219065699998,-0.3490861,0.03344066,-0.06073821
2023-10-31 11:08:29.854000128,-0.06119271,0.03416869,-0.01607431,0.03048268,0.02909186,-0.01257705,0.006079454,0.0007412824,-0.006972095,-0.3997603140149992,2.0197569070699988,-3.573191160699998,-0.3489973,0.03339126,-0.06080859
2023-10-31 11:08:29.868000000,-0.06112249,0.03418154,-0.01588291,0.01156485,0.01863925,-0.01903391,0.006342463,-0.0005818311,-0.005328629,-0.3934178510149992,2.019175075969999,-3.5785197896999983,-0.3489286,0.0333534,-0.06080868
2023-10-31 11:08:29.880999936,-0.06111476,0.03414145,-0.01565489,2.555812e-05,0.0101194,-0.01967012,0.006276036,-0.002130628,-0.003877897,-0.3871418150149992,2.0170444479699987,-3.5823976866999985,-0.3488852,0.03329375,-0.0607765
2023-10-31 11:08:29.896000000,-0.06091589,0.03419808,-0.01545064,-0.01083521,-0.0006837367,-0.03037468,0.005888564,-0.003441476,-0.002565617,-0.3812532510149992,2.013602971969999,-3.5849633036999986,-0.3488437,0.03321747,-0.06073591
2023-10-31 11:08:29.908999936,-0.06076741,0.03423637,-0.01497776,-0.01794949,-0.007458979,-0.03134958,0.005560837,-0.004534858,-0.001589718,-0.3756924140149992,2.009068113969999,-3.5865530216999986,-0.3487763,0.03310036,-0.06073206
2023-10-31 11:08:29.923000064,-0.06059498,0.03437433,-0.01467838,-0.02258101,-0.01271516,-0.03894658,0.005104446,-0.004853438,-0.0005789567,-0.3705879680149992,2.004214675969999,-3.587131978399998,-0.3487165,0.0330069,-0.06070711
2023-10-31 11:08:29.936999936,-0.06054951,0.03441238,-0.01443868,-0.02266947,-0.01378225,-0.03905582,0.004548428,-0.004788232,0.0002444969,-0.3660395400149993,1.999426443969999,-3.5868874814999985,-0.3486727,0.03289053,-0.06068389
2023-10-31 11:08:29.951000064,-0.06050181,0.03437161,-0.01424812,-0.01996102,-0.008789145,-0.03774487,0.004332864,-0.005083755,0.001039745,-0.3617066760149993,1.994342688969999,-3.5858477364999986,-0.3486258,0.0327575,-0.06065623
2023-10-31 11:08:29.964999936,-0.06038034,0.03428224,-0.01395286,-0.01596107,-0.007508759,-0.03268464,0.003875678,-0.005439261,0.001429271,-0.3578309980149993,1.9889034279699989,-3.5844184654999984,-0.3485891,0.0326303,-0.0606329
2023-10-31 11:08:29.979000064,-0.06012063,0.03431347,-0.01406682,-0.01995783,-0.003696819,-0.02419624,0.003614185,-0.005204972,0.001821502,-0.3542168130149993,1.9836984559699988,-3.5825969634999986,-0.3485436,0.03256914,-0.06059679
2023-10-31 11:08:29.999000064,-0.0601292,0.03430745,-0.01395585,-0.01588864,0.001150451,-0.01223292,0.003586896,-0.005373644,0.001906052,-0.3506299170149993,1.9783248119699988,-3.5806909114999987,-0.3484988,0.03248523,-0.06056659
2023-10-31 11:08:30.006000128,-0.06001358,0.03428009,-0.01391787,-0.01729455,0.002937178,-0.007527924,0.003255002,-0.005383324,0.002070829,-0.3473749150149993,1.972941487969999,-3.5786200824999987,-0.3484839,0.03242001,-0.06051818
2023-10-31 11:08:30.017999872,-0.05978895,0.03417408,-0.01387678,-0.01842797,0.007885841,-0.002493274,0.003204942,-0.005641141,0.002226018,-0.3441699730149993,1.9673003469699988,-3.5763940644999987,-0.3484598,0.03234257,-0.06047492
2023-10-31 11:08:30.032999936,-0.05974878,0.03412578,-0.01399907,-0.01794882,0.008584837,0.0007725767,0.002782157,-0.006147628,0.002261027,-0.3413878160149993,1.9611527189699989,-3.574133037499999,-0.3484393,0.03225772,-0.06043958
2023-10-31 11:08:30.046000128,-0.05951224,0.03405613,-0.01409624,-0.02189853,0.008657658,0.003425709,0.002483405,-0.006308432,0.002375257,-0.3389044110149993,1.954844286969999,-3.5717577804999987,-0.3484105,0.03217127,-0.06040778
2023-10-31 11:08:30.060000000,-0.05923001,0.03403935,-0.01423165,-0.02632633,0.01054168,0.009597689,0.002595795,-0.007115502,0.002310052,-0.3363086160149993,1.947728784969999,-3.569447728499999,-0.3483732,0.03205246,-0.06037595
2023-10-31 11:08:30.073999872,-0.05879284,0.03395346,-0.01419207,-0.03656269,0.009871185,0.01401017,0.002833751,-0.008000872,0.002024687,-0.3334748650149993,1.939727912969999,-3.567423041499999,-0.3483449,0.0318693,-0.06034765
2023-10-31 11:08:30.088000000,-0.05847453,0.03409374,-0.01444661,-0.042817,0.00458974,0.01848486,0.002733068,-0.008994762,0.001559367,-0.3307417970149993,1.930733150969999,-3.5658636744999987,-0.3483236,0.03168968,-0.0603175
2023-10-31 11:08:30.101999872,-0.05819267,0.03414005,-0.01458373,-0.04555425,0.003267639,0.02299524,0.002913901,-0.009446515,0.0009891845,-0.3278278960149993,1.921286635969999,-3.564874489999999,-0.3482825,0.03154507,-0.06031195
2023-10-31 11:08:30.115000064,-0.0577559,0.03425267,-0.01468223,-0.04554269,-0.001353973,0.02569558,0.002707542,-0.009948961,0.0002339759,-0.3251203540149993,1.9113376749699988,-3.564640514099999,-0.34825,0.03140137,-0.06031849
2023-10-31 11:08:30.128999936,-0.05727681,0.03440493,-0.01491727,-0.05236057,-0.004946492,0.02501044,0.002422218,-0.009985408,-0.0007977017,-0.3226981360149993,1.901352266969999,-3.565438215799998,-0.3482137,0.03128706,-0.06033464
2023-10-31 11:08:30.142999808,-0.05680277,0.03453076,-0.01493025,-0.054839,-0.009029659,0.02481191,0.001993248,-0.00980634,-0.001868801,-0.3207048880149993,1.891545926969999,-3.5673070167999987,-0.3481654,0.03119489,-0.06034229
2023-10-31 11:08:30.157000192,-0.05656702,0.03474888,-0.01497316,-0.05406236,-0.01228026,0.02433301,0.00198932,-0.008908409,-0.002642589,-0.3187155680149993,1.882637517969999,-3.569949605799999,-0.3481033,0.03112147,-0.06035253
2023-10-31 11:08:30.171000064,-0.05630356,0.03501037,-0.01500149,-0.05241414,-0.02132882,0.01757277,0.001790306,-0.007406465,-0.00369557,-0.3169252620149992,1.875231052969999,-3.573645175799999,-0.3480786,0.03105848,-0.06040891
2023-10-31 11:08:30.184999936,-0.05614107,0.03531101,-0.01492373,-0.04003131,-0.03027654,0.01056922,0.001736943,-0.006211222,-0.004670953,-0.3151883190149993,1.869019830969999,-3.578316128799999,-0.3480533,0.03099674,-0.06047762
2023-10-31 11:08:30.198999808,-0.05614924,0.03574696,-0.01464955,-0.03096905,-0.04110051,0.0037394,0.001848736,-0.004875996,-0.005366204,-0.3133395830149992,1.864143834969999,-3.583682332799999,-0.3480326,0.03092142,-0.06057152
2023-10-31 11:08:30.213999872,-0.05625151,0.03604358,-0.01439636,-0.01544918,-0.04925666,-0.01227856,0.002266414,-0.003789881,-0.005665279,-0.3110731690149992,1.860353953969999,-3.589347611799999,-0.3480099,0.03083173,-0.0607074
2023-10-31 11:08:30.227000064,-0.0564242,0.0364446,-0.01430722,-0.002610869,-0.05753303,-0.01605144,0.002689363,-0.002616212,-0.005660433,-0.3083838060149992,1.857737741969999,-3.5950080447999992,-0.3479804,0.03077541,-0.06082487
2023-10-31 11:08:30.240999936,-0.05672082,0.03712818,-0.01420623,0.007965256,-0.06876881,-0.01123556,0.002938075,-0.001592874,-0.005229373,-0.3054457310149993,1.856144867969999,-3.6002374177999994,-0.3479304,0.03077403,-0.0608446
2023-10-31 11:08:30.255000064,-0.05689946,0.0376837,-0.01433464,0.0198927,-0.0733017,-0.0003729989,0.003346299,-0.0009396163,-0.004680418,-0.3020994320149993,1.855205251669999,-3.6049178358,-0.3478701,0.03078701,-0.0608622
2023-10-31 11:08:30.268000000,-0.05701354,0.03835189,-0.01436907,0.02262475,-0.07981379,0.007085928,0.00356981,-0.0002662468,-0.004138221,-0.2985296220149993,1.854939004869999,-3.609056056799999,-0.3478321,0.03080463,-0.06086949
2023-10-31 11:08:30.282000128,-0.05692217,0.03878522,-0.01411617,0.01428423,-0.08054342,0.001566368,0.003914342,0.000180015,-0.00374205,-0.2946152800149992,1.855119019869999,-3.6127981067999992,-0.3478022,0.03080419,-0.06089052
2023-10-31 11:08:30.296000000,-0.05695985,0.03947821,-0.01396122,0.004435056,-0.08285262,0.001553949,0.003673423,-2.192578e-05,-0.003501577,-0.2909418570149992,1.855097094089999,-3.6162996838,-0.3477777,0.03079332,-0.06089408
2023-10-31 11:08:30.311000064,-0.05694347,0.03998384,-0.01387191,-0.001247756,-0.08205358,-0.0008020678,0.003672168,-0.0009673418,-0.003221552,-0.2872696890149993,1.8541297522899989,-3.6195212357999993,-0.3477252,0.0307545,-0.06089976
2023-10-31 11:08:30.324000000,-0.05684347,0.04058275,-0.01380456,-0.007093321,-0.08454867,-0.002475717,0.003512796,-0.00179833,-0.002851631,-0.2837568930149993,1.852331422289999,-3.6223728667999993,-0.3476776,0.03070762,-0.06089257
2023-10-31 11:08:30.338000128,-0.05684635,0.04119211,-0.01354789,-0.008179534,-0.08551987,-0.002419431,0.003260578,-0.002584264,-0.002197345,-0.2804963150149993,1.849747158289999,-3.624570211799999,-0.3476197,0.03064263,-0.06092382
2023-10-31 11:08:30.352000000,-0.05691844,0.04165092,-0.01363549,-0.004001428,-0.08326594,0.002710627,0.002723822,-0.003153255,-0.001432425,-0.2777724930149993,1.846593903289999,-3.626002636799999,-0.3475747,0.03059684,-0.06095409
2023-10-31 11:08:30.365999872,-0.05701736,0.04207307,-0.01375636,-0.0006849272,-0.07539635,0.006512075,0.002214154,-0.00334083,-0.0003037183,-0.2755583390149992,1.843253073289999,-3.626306355099999,-0.3475451,0.03055649,-0.06093029
2023-10-31 11:08:30.380000000,-0.05701018,0.04240406,-0.01357456,0.001264295,-0.06823571,0.008220239,0.001604432,-0.004260119,0.0005264538,-0.2739539070149993,1.838992954289999,-3.625779901299999,-0.3475343,0.03046574,-0.06088129
2023-10-31 11:08:30.394000128,-0.05685747,0.04279187,-0.01370434,-0.00582512,-0.05734096,0.01287276,0.001067563,-0.005048764,0.001238175,-0.2728863440149993,1.8339441902899989,-3.624541726299999,-0.3475356,0.03038765,-0.0608312
2023-10-31 11:08:30.407000064,-0.05666941,0.04311815,-0.01402124,-0.01416998,-0.05038349,0.02485283,0.0003392696,-0.00553711,0.001882592,-0.2725470744149992,1.828407080289999,-3.622659134299999,-0.3475821,0.03032275,-0.06081614
2023-10-31 11:08:30.420999936,-0.05655026,0.04345402,-0.01423918,-0.01400294,-0.04676882,0.03074024,-0.0002432292,-0.00668407,0.002345345,-0.2727903036149992,1.821723010289999,-3.620313789299999,-0.347632,0.03022179,-0.06079688
2023-10-31 11:08:30.435000064,-0.05613644,0.04373667,-0.01407642,-0.0260793,-0.04313335,0.02764677,-0.0007068299,-0.007858176,0.003002903,-0.2734971335149992,1.813864834289999,-3.617310886299999,-0.3476591,0.03007609,-0.06072895
2023-10-31 11:08:30.448999936,-0.05565341,0.04397383,-0.01392459,-0.04548118,-0.04190259,0.01451776,-0.001509811,-0.008480055,0.003456089,-0.2750069445149992,1.805384779289999,-3.613854797299999,-0.3476977,0.02993431,-0.06065418
2023-10-31 11:08:30.463000064,-0.05531421,0.04417998,-0.01403799,-0.04916643,-0.03777651,0.01018749,-0.002035503,-0.009194136,0.0040819,-0.2770424475149992,1.796190643289999,-3.609772897299999,-0.3477341,0.02978567,-0.0605736
2023-10-31 11:08:30.476999936,-0.0549648,0.0445109,-0.01416737,-0.05295019,-0.03744077,0.01958105,-0.002876676,-0.009394126,0.004507423,-0.2799191235149992,1.786796517289999,-3.605265474299999,-0.3477874,0.02963388,-0.06049162
2023-10-31 11:08:30.491000064,-0.0544256,0.04482293,-0.01426958,-0.05962999,-0.03546168,0.01765224,-0.003386333,-0.008997802,0.004568479,-0.2833054565149993,1.777798715289999,-3.6006969952999985,-0.3478398,0.02949842,-0.0604172
2023-10-31 11:08:30.505000192,-0.05412382,0.04489812,-0.01398158,-0.0555607,-0.0349179,0.009410434,-0.004125661,-0.008579179,0.004159098,-0.2874311175149993,1.769219536289999,-3.5965378972999984,-0.3479146,0.02936965,-0.06036215
2023-10-31 11:08:30.519000064,-0.0539658,0.04504502,-0.01384456,-0.05093398,-0.03025488,0.002772598,-0.004921932,-0.007234519,0.003709432,-0.2923530495149993,1.761985017289999,-3.5928284652999984,-0.348,0.02929196,-0.06031079
2023-10-31 11:08:30.532999936,-0.05373577,0.04519001,-0.0138626,-0.04098964,-0.02346869,0.001016528,-0.005543343,-0.006022022,0.003148814,-0.2978963925149993,1.7559629952899989,-3.589679651299998,-0.3481029,0.02925566,-0.06029035
2023-10-31 11:08:30.546000128,-0.0536162,0.04530001,-0.01376921,-0.03213636,-0.02029827,-0.005451499,-0.006146449,-0.004702859,0.00260742,-0.3040428415149993,1.7512601362899989,-3.5870722312999983,-0.3482259,0.02925062,-0.06029537
2023-10-31 11:08:30.560000000,-0.05356053,0.04548967,-0.01366669,-0.02309142,-0.01583458,-0.005203463,-0.006636894,-0.003516562,0.002062819,-0.3106797355149993,1.747743574289999,-3.5850094122999985,-0.3483484,0.02925269,-0.06029785
2023-10-31 11:08:30.575000064,-0.05354425,0.04536277,-0.01362803,-0.01401111,-0.009112411,-0.005757968,-0.006898082,-0.002229941,0.001912745,-0.3175778175149992,1.745513633289999,-3.583096667299998,-0.3484511,0.02924945,-0.06028277
2023-10-31 11:08:30.588000000,-0.05363555,0.04535648,-0.0135113,-0.004842666,-0.006236752,-0.01016194,-0.007204911,-0.001019116,0.001746501,-0.3247827285149992,1.744494517289999,-3.5813501662999987,-0.3485579,0.02922818,-0.06028416
2023-10-31 11:08:30.601999872,-0.05379976,0.04533195,-0.01343402,0.005910326,-0.003875291,-0.01160762,-0.007592581,-0.0004837428,0.001560271,-0.3323753095149992,1.744010774489999,-3.579789895299999,-0.3486664,0.02914499,-0.0603325
2023-10-31 11:08:30.617000192,-0.05390048,0.04523683,-0.01341571,0.01000419,0.00190041,-0.00927628,-0.007649247,0.0003640183,0.00175595,-0.3400245565149992,1.744374792789999,-3.5780339452999987,-0.348768,0.029084,-0.06037492
2023-10-31 11:08:30.631000064,-0.05406522,0.0451439,-0.01338835,0.01476344,0.00564331,-0.008439692,-0.007787269,0.0008278879,0.002104511,-0.3478118255149992,1.7452026806899992,-3.5759294342999985,-0.3488804,0.02910176,-0.06034667
2023-10-31 11:08:30.644000000,-0.05419042,0.04506913,-0.0133512,0.01591022,0.006616252,-0.008490915,-0.007848351,0.000635127,0.002287387,-0.3556601765149992,1.7458378076899992,-3.5736420472999986,-0.3489912,0.02910496,-0.06031555
2023-10-31 11:08:30.657999872,-0.05424312,0.04502258,-0.01333644,0.01294724,0.006646821,-0.006892944,-0.007869234,0.0002732583,0.002549501,-0.3635294105149992,1.7461110659899992,-3.5710925462999987,-0.3491721,0.02906668,-0.06038118
2023-10-31 11:08:30.672000000,-0.05432148,0.04501477,-0.01332789,0.01197334,0.005525373,-0.005798718,-0.007859608,-0.0002348226,0.002652489,-0.3713890185149992,1.7458762433899992,-3.568440057299999,-0.349437,0.02897615,-0.06056891
2023-10-31 11:08:30.686000128,-0.05446027,0.04495901,-0.01338246,0.01488355,0.008083113,-0.002644259,-0.007223083,-0.0005620947,0.002983563,-0.3786121015149992,1.7453141486899992,-3.565456494299999,-0.3496693,0.02889472,-0.06073364
2023-10-31 11:08:30.700000000,-0.05461611,0.04500943,-0.01338118,0.01785578,0.002295278,-0.001763051,-0.007162547,-0.0006362532,0.003713139,-0.3857746485149992,1.7446778954899993,-3.561743355299999,-0.3497683,0.02888526,-0.06066228
2023-10-31 11:08:30.712999936,-0.05467984,0.04502311,-0.01344047,0.01513702,0.001040778,0.001787354,-0.006825618,-0.0006345867,0.00445141,-0.3926002665149992,1.7440433087899994,-3.557291945299999,-0.3498552,0.02888145,-0.06058278
2023-10-31 11:08:30.727000064,-0.05469359,0.04505521,-0.01342115,0.01029645,-0.001516734,4.42874e-05,-0.006493934,-0.001093225,0.005043832,-0.3990942005149992,1.7429500837899994,-3.552248113299999,-0.3499416,0.02891587,-0.0604575
2023-10-31 11:08:30.740999936,-0.0545753,0.04512259,-0.01343969,0.000762843,-0.004111025,0.002349697,-0.006050517,-0.001808808,0.005577494,-0.4051447175149992,1.741141275789999,-3.5466706192999986,-0.3500222,0.0289608,-0.06030823
2023-10-31 11:08:30.755000064,-0.05441488,0.04522246,-0.01341123,-0.008171256,-0.007546012,0.002256092,-0.005495255,-0.00233038,0.005959799,-0.4106399725149992,1.7388108957899993,-3.5407108202999984,-0.3500895,0.02896518,-0.06017769
2023-10-31 11:08:30.768999936,-0.05426817,0.04539424,-0.01351167,-0.01276356,-0.0122348,0.008917175,-0.005062687,-0.002888466,0.006215516,-0.4157026595149992,1.735922429789999,-3.5344953042999983,-0.3501491,0.02891718,-0.06007483
2023-10-31 11:08:30.783000064,-0.05407868,0.04558039,-0.01352327,-0.01739901,-0.01491147,0.008219048,-0.004913556,-0.003149362,0.006283734,-0.4206162155149991,1.7327730677899993,-3.528211570299998,-0.3502125,0.02887166,-0.05997581
2023-10-31 11:08:30.796999936,-0.05409013,0.04568151,-0.01338087,-0.01317078,-0.01788029,0.002729868,-0.004727048,-0.003136693,0.00641728,-0.4253432635149992,1.7296363747899992,-3.521794290299998,-0.3502685,0.02884135,-0.05989381
2023-10-31 11:08:30.811000064,-0.05412409,0.04578289,-0.0133956,-0.0062126,-0.01813545,-0.0006544334,-0.00444174,-0.002552893,0.006534914,-0.4297850035149991,1.7270834817899992,-3.515259376299998,-0.350318,0.02884248,-0.05980995
2023-10-31 11:08:30.824000000,-0.05415182,0.04588494,-0.01342331,-0.002352412,-0.01670869,0.002179543,-0.004189239,-0.001451521,0.006731103,-0.4339742425149991,1.7256319607899993,-3.5085282732999983,-0.3503681,0.02885667,-0.05970962
2023-10-31 11:08:30.839000064,-0.05425763,0.04600358,-0.01347688,0.003494867,-0.01649132,0.00450925,-0.0041441,-0.0007255081,0.006912819,-0.4381183425149991,1.724906452689999,-3.501615454299998,-0.3504238,0.02886562,-0.05960201
2023-10-31 11:08:30.852999936,-0.05432422,0.04608676,-0.01345223,0.005159126,-0.01515703,0.00113882,-0.003985404,-4.013106e-05,0.007079176,-0.4421037465149992,1.7248663216299993,-3.4945362782999982,-0.350475,0.02887956,-0.05949536
2023-10-31 11:08:30.867000064,-0.05436098,0.04611126,-0.01339316,0.003720042,-0.01133109,-0.002451071,-0.003550812,0.000567519,0.007642253,-0.4456545585149992,1.7254338406299994,-3.486894025299998,-0.3505446,0.0289493,-0.05935344
2023-10-31 11:08:30.880000000,-0.05432099,0.04622352,-0.01348149,0.0006003991,-0.01189354,0.004554974,-0.003574654,0.0009937792,0.008007827,-0.4492292125149992,1.7264276198299997,-3.478886198299998,-0.3506521,0.02907871,-0.05918707
2023-10-31 11:08:30.894000128,-0.05425892,0.04637757,-0.01382953,-0.0003887725,-0.01116396,0.01684805,-0.00343163,0.0007286068,0.008447199,-0.4526608425149992,1.7271562266299996,-3.470438999299998,-0.3507372,0.0291812,-0.05901999
2023-10-31 11:08:30.908000000,-0.05395018,0.04648024,-0.01419486,-0.009649293,-0.01100403,0.03155587,-0.003257441,0.0002704171,0.00864985,-0.4559182835149992,1.7274266437299997,-3.461789149299998,-0.3507764,0.02919767,-0.05888922
2023-10-31 11:08:30.921999872,-0.05387331,0.04658109,-0.01430441,-0.01399451,-0.01052796,0.03127223,-0.002903309,0.0001215467,0.008795251,-0.4588215925149992,1.7275481904299996,-3.452993898299998,-0.3508074,0.02920258,-0.05875747
2023-10-31 11:08:30.936000000,-0.05385583,0.04662171,-0.01422799,-0.01115606,-0.01086913,0.02308149,-0.002639067,0.000592252,0.008795294,-0.4614606595149992,1.7281404424299995,-3.444198604299998,-0.3508341,0.02923058,-0.05868274
2023-10-31 11:08:30.950000128,-0.05392583,0.04673767,-0.01428511,-0.002069789,-0.01170001,0.01376125,-0.002449503,0.001228053,0.008890827,-0.4639101625149992,1.7293684954299997,-3.435307777299998,-0.350858,0.02928351,-0.05861731
2023-10-31 11:08:30.964000000,-0.05403946,0.0468643,-0.01432165,0.00484432,-0.01422978,0.01112862,-0.002203543,0.001953238,0.008729119,-0.4661137055149992,1.7313217334299995,-3.426578658299998,-0.3508799,0.02933965,-0.05852917
2023-10-31 11:08:30.977999872,-0.05436439,0.04696417,-0.01423301,0.01245632,-0.01919167,0.001480698,-0.002065257,0.002359021,0.008822368,-0.4681789625149992,1.7336807544299997,-3.417756290299998,-0.3509055,0.02937787,-0.05839935
2023-10-31 11:08:30.992000000,-0.05437113,0.04714429,-0.01420252,0.01339451,-0.02032563,0.001150183,-0.001927749,0.002328888,0.008846715,-0.4701067115149991,1.7360096424299996,-3.4089095752999983,-0.3509274,0.02940857,-0.05826426
2023-10-31 11:08:31.007000064,-0.05448748,0.04720643,-0.01429671,0.01464844,-0.01829811,0.001232689,-0.002064871,0.001428034,0.008784777,-0.4721715825149992,1.7374376764299997,-3.4001247982999985,-0.3509452,0.02944135,-0.05815348
2023-10-31 11:08:31.019000064,-0.05439721,0.04731408,-0.01423085,0.005227253,-0.01410073,0.001256204,-0.002414747,0.0002318385,0.008836008,-0.4745863295149992,1.7376695149299994,-3.391288790299998,-0.3509723,0.02944145,-0.05803517
2023-10-31 11:08:31.033999872,-0.0542847,0.04722399,-0.01420988,-0.002981389,-0.004437021,-0.0003391066,-0.002194044,-0.0008444909,0.009078654,-0.4767803735149992,1.7368250240299994,-3.3822101362999986,-0.3509926,0.02941174,-0.05791343
2023-10-31 11:08:31.048000000,-0.0541168,0.04721752,-0.01424073,-0.01093065,-0.001817669,0.002498374,-0.002180698,-0.001923871,0.009067519,-0.4789610715149991,1.7349011530299994,-3.3731426172999988,-0.3510224,0.02936142,-0.05778769
2023-10-31 11:08:31.061000192,-0.05391939,0.04721683,-0.01432321,-0.01653201,-0.0007072855,0.006896651,-0.002189272,-0.003071059,0.008861007,-0.4811503435149992,1.731830094029999,-3.3642816102999986,-0.3510548,0.02928887,-0.05767798
2023-10-31 11:08:31.075000064,-0.0535109,0.04716656,-0.01435752,-0.02699874,0.003571372,0.007127553,-0.001915302,-0.003563907,0.008792493,-0.4830656455149992,1.7282661870299991,-3.3554891172999985,-0.3510938,0.02918825,-0.05760015
2023-10-31 11:08:31.088999936,-0.05326394,0.04716381,-0.01420994,-0.03235711,0.003736872,0.001517533,-0.001610197,-0.003672233,0.008303327,-0.4846758425149992,1.7245939540299993,-3.3471857902999984,-0.3511294,0.02908195,-0.05753485
2023-10-31 11:08:31.102999808,-0.05316424,0.0470888,-0.01410929,-0.02750335,0.003617157,-0.00153183,-0.0009878066,-0.003325213,0.008252392,-0.4856636491149991,1.7212687410299992,-3.3389333982999982,-0.3511338,0.02902947,-0.05743316
2023-10-31 11:08:31.116000000,-0.05318384,0.04725617,-0.01420138,-0.02084713,-0.0006251494,0.001091506,-0.000760664,-0.002387532,0.007909104,-0.4864243131149992,1.7188812090299992,-3.3310242942999984,-0.3511386,0.02902452,-0.05732114
2023-10-31 11:08:31.130000128,-0.05308731,0.04728132,-0.01423224,-0.01563012,-0.006738389,0.002585453,-0.0004732357,-0.001363854,0.007550296,-0.4868975488149992,1.7175173550299991,-3.3234739982999986,-0.3511344,0.029045,-0.0572162
2023-10-31 11:08:31.144000000,-0.05304023,0.04737508,-0.01419284,-0.01300275,-0.009988117,0.0005644304,8.95164e-06,-0.0006580152,0.006848706,-0.4868885971749992,1.7168593398299992,-3.3166252922999986,-0.3511101,0.02909008,-0.05711327
2023-10-31 11:08:31.157999872,-0.05296718,0.04740515,-0.01412447,-0.01239287,-0.008564806,-0.00261793,0.0005991291,-0.0003195335,0.00595276,-0.4862894680749992,1.7165398063299993,-3.3106725322999986,-0.3510762,0.02912879,-0.05703136
2023-10-31 11:08:31.172000000,-0.05291764,0.04742718,-0.01403156,-0.01074095,-0.007222611,-0.005992533,0.0009428186,4.580431e-05,0.004940414,-0.4853466494749992,1.7165856106399993,-3.3057321182999986,-0.3510553,0.02913378,-0.05698304
2023-10-31 11:08:31.186000128,-0.05292644,0.047434,-0.01397099,-0.006536906,-0.005296292,-0.007535301,0.001311992,0.0009015566,0.004125705,-0.4840346574749992,1.7174871672399992,-3.3016064132999987,-0.3510291,0.02916101,-0.05694376
2023-10-31 11:08:31.200999936,-0.05298097,0.04748887,-0.0140504,-0.000993052,-0.005629858,-0.0008878449,0.001745395,0.001934275,0.003455576,-0.4822892624749992,1.7194214422399992,-3.298150837299999,-0.3509939,0.02919494,-0.05695049
2023-10-31 11:08:31.213999872,-0.05312171,0.04755399,-0.01412579,0.007209875,-0.006964928,0.002964114,0.002145705,0.002590068,0.002548258,-0.4801435574749992,1.722011510239999,-3.295602579299999,-0.3509526,0.02921397,-0.05700579
2023-10-31 11:08:31.228000000,-0.05327869,0.04761603,-0.01419309,0.01400861,-0.007913853,0.00492603,0.002480103,0.003122013,0.001807965,-0.4776634544749992,1.7251335232399991,-3.293794614299999,-0.3509088,0.02924952,-0.05704664
2023-10-31 11:08:31.242000128,-0.05342431,0.04766366,-0.01419353,0.01677362,-0.007857113,0.002262825,0.003124392,0.003814427,0.001336922,-0.4745390624749993,1.7289479502399991,-3.292457692299999,-0.350851,0.02932018,-0.05703618
2023-10-31 11:08:31.256000000,-0.05352602,0.04782659,-0.0142759,0.01994034,-0.01156552,0.003354762,0.003666186,0.004111874,0.0009090002,-0.4708728764749992,1.733059824239999,-3.291548692099999,-0.3507878,0.02938962,-0.05702375
2023-10-31 11:08:31.269999872,-0.0537993,0.04800281,-0.01435997,0.02328716,-0.01542289,0.005503889,0.003980808,0.004094325,0.0007126792,-0.4668920684749992,1.7371541492399991,-3.290836012899999,-0.3506918,0.02943776,-0.05695677
2023-10-31 11:08:31.284000000,-0.05388889,0.04805917,-0.0144635,0.02274939,-0.01234093,0.007135783,0.004658007,0.004144435,0.0004270724,-0.4622340614749992,1.741298584239999,-3.290408940499999,-0.3505707,0.02948568,-0.05689037
2023-10-31 11:08:31.298000128,-0.05431345,0.04811093,-0.01440003,0.02834932,-0.01343484,0.002721445,0.004941706,0.004135203,0.000237006,-0.4572923554749992,1.745433787239999,-3.290171934499999,-0.3504764,0.0295311,-0.05685667
2023-10-31 11:08:31.311000064,-0.05445173,0.04821733,-0.01441451,0.03233354,-0.01362513,0.0008903096,0.00533882,0.004532573,-0.0001274669,-0.4519535354749992,1.749966360239999,-3.290299401399999,-0.3503933,0.02960406,-0.05686034
2023-10-31 11:08:31.324999936,-0.05486508,0.04836127,-0.01449492,0.03644288,-0.01847015,0.001677332,0.00562146,0.004481686,-0.0003491163,-0.4463320754749992,1.7544480462399992,-3.290648517699999,-0.3503086,0.02967093,-0.05686588
2023-10-31 11:08:31.339000064,-0.05494544,0.04854336,-0.0145139,0.03305504,-0.0168785,0.0002926427,0.00615846,0.00392166,-0.0008816337,-0.4401736154749992,1.7583697062399992,-3.291530151399999,-0.3502223,0.02969251,-0.05695335
2023-10-31 11:08:31.352999936,-0.05504994,0.04859579,-0.01462644,0.02609431,-0.0188301,0.004549475,0.006515354,0.0028761,-0.001365435,-0.4336582614749992,1.7612458062399992,-3.292895586399999,-0.3501371,0.02969302,-0.05705633
2023-10-31 11:08:31.368000000,-0.05508891,0.04877031,-0.01462692,0.01802753,-0.01948628,0.008076766,0.006924666,0.002113181,-0.001616873,-0.4267335954749992,1.763358987239999,-3.294512459399999,-0.3500341,0.02969914,-0.05709589
2023-10-31 11:08:31.380999936,-0.05509424,0.04889148,-0.01483143,0.01206334,-0.01807431,0.01043042,0.007322013,0.001285238,-0.001617954,-0.4194115824749992,1.764644225239999,-3.296130413399999,-0.3499226,0.02971122,-0.05711199
2023-10-31 11:08:31.395000064,-0.05526777,0.04903322,-0.01481584,0.01024868,-0.01921861,0.0127956,0.007672561,0.0007903011,-0.001551514,-0.4117390214749992,1.7654345263399989,-3.297681927399999,-0.3497992,0.02971265,-0.05712285
2023-10-31 11:08:31.408000000,-0.05516215,0.04935586,-0.01486613,0.00907123,-0.02244025,0.01364037,0.008190524,0.0006129777,-0.001583609,-0.4035484974749992,1.7660475040399988,-3.2992655363999988,-0.349624,0.02972965,-0.05712176
2023-10-31 11:08:31.421999872,-0.05517258,0.0494898,-0.01502135,0.006456609,-0.02528106,0.01262415,0.008622007,9.239592e-06,-0.001686316,-0.3949264904749992,1.7660567436319987,-3.3009518523999986,-0.3494461,0.02973475,-0.05713725
2023-10-31 11:08:31.436000000,-0.05494876,0.04981849,-0.01509492,0.000145808,-0.02926382,0.01538551,0.008898908,-0.0006846463,-0.001978176,-0.3860275824749992,1.7653720973319986,-3.3029300283999987,-0.3493034,0.02971609,-0.05714965
2023-10-31 11:08:31.450000128,-0.05510366,0.05000374,-0.01505705,-0.002482064,-0.03433697,0.01518288,0.009001544,-0.001265144,-0.002421628,-0.3770260384749992,1.7641069533319986,-3.3053516563999987,-0.3491735,0.02968422,-0.05718133
2023-10-31 11:08:31.464000000,-0.05506617,0.05033186,-0.01511575,-0.001890947,-0.03863318,0.01447287,0.009177591,-0.001446418,-0.002779818,-0.3678484474749993,1.7626605353319986,-3.3081314743999988,-0.3490451,0.02966654,-0.0572086
2023-10-31 11:08:31.477999872,-0.05500276,0.05059442,-0.01504744,-0.006689453,-0.03665458,0.01125145,0.009548912,-0.001341627,-0.003001454,-0.3582995354749992,1.761318908331999,-3.311132928399999,-0.3489265,0.02964875,-0.05724311
2023-10-31 11:08:31.492000000,-0.0549039,0.05096167,-0.01517982,-0.009316122,-0.03948512,0.01024487,0.009482222,-0.001516231,-0.00353005,-0.3488173134749993,1.7598026773319986,-3.314662978399999,-0.3488182,0.02963464,-0.05728627
2023-10-31 11:08:31.506000128,-0.05487977,0.05114609,-0.01522058,-0.006735342,-0.03890143,0.01203656,0.009788124,-0.001764803,-0.003942955,-0.3390291894749992,1.7580378743319989,-3.318605933399999,-0.3486763,0.02960551,-0.05733955
2023-10-31 11:08:31.520000000,-0.05505994,0.05144641,-0.01499259,-0.0009349029,-0.04180443,0.003994107,0.009534864,-0.00141625,-0.00447278,-0.3294943254749993,1.7566216243319988,-3.323078713399999,-0.3485485,0.02957975,-0.05739477
2023-10-31 11:08:31.533999872,-0.05515971,0.05152437,-0.01503846,0.007572065,-0.03471341,9.351478e-05,0.009340558,-0.0009127295,-0.004734859,-0.3201537674749993,1.7557088948319988,-3.327813572399999,-0.3484179,0.02958039,-0.05743203
2023-10-31 11:08:31.546999808,-0.05536645,0.05169934,-0.0151862,0.01509731,-0.02712805,0.001924207,0.00896066,-0.000371882,-0.004924818,-0.3111931074749993,1.7553370128319987,-3.332738390399999,-0.3482955,0.02959742,-0.05744684
2023-10-31 11:08:31.561000192,-0.05545406,0.05186418,-0.01539175,0.01827686,-0.02311857,0.01064447,0.008352222,-0.00021497,-0.005239257,-0.3028408854749992,1.755122042831999,-3.337977647399999,-0.3481864,0.02961021,-0.05748498
2023-10-31 11:08:31.575000064,-0.05556547,0.05186838,-0.01562558,0.01701295,-0.01577985,0.02287208,0.007833251,-0.0005479493,-0.005708532,-0.2950076344749993,1.754574093531999,-3.343686179399999,-0.3480856,0.02960948,-0.05757577
2023-10-31 11:08:31.588999936,-0.0552188,0.05183434,-0.01575829,0.005157332,-0.007216732,0.0252072,0.007353052,-0.0007862319,-0.006580757,-0.2876545824749992,1.7537878616319986,-3.350266936399999,-0.3479918,0.02960069,-0.05768786
2023-10-31 11:08:31.602999808,-0.0552859,0.05176571,-0.01578237,-0.002547635,0.00123744,0.01577933,0.006892791,-0.00116236,-0.007669579,-0.2807617914749992,1.7526255016319987,-3.3579365153999987,-0.347897,0.02957271,-0.0578603
2023-10-31 11:08:31.617000192,-0.05511766,0.05169219,-0.01580114,-0.01057324,0.004696412,0.01230019,0.006370428,-0.0008087498,-0.008807413,-0.2743913634749992,1.7518167518319987,-3.3667439283999987,-0.3478102,0.02956442,-0.05805412
2023-10-31 11:08:31.632000000,-0.05509919,0.0516293,-0.01582593,-0.007932614,0.00590658,0.008675645,0.005979626,-0.0008845161,-0.009815293,-0.2684117374749992,1.7509322357319987,-3.376559221399998,-0.3477296,0.02954761,-0.0582399
2023-10-31 11:08:31.644999936,-0.05501972,0.05158076,-0.01582897,-0.009562245,0.006431418,0.005767391,0.005737709,-0.001046236,-0.01101559,-0.2626740284749992,1.7498859997319989,-3.3875748113999986,-0.3476556,0.0295286,-0.05842328
2023-10-31 11:08:31.657999872,-0.055013,0.05146989,-0.01572309,-0.006754525,0.009328486,-0.003135344,0.005688532,-0.0009251548,-0.01194548,-0.2569854964749992,1.7489608449319989,-3.3995202913999987,-0.3475792,0.02951224,-0.05861289
2023-10-31 11:08:31.673000192,-0.05498114,0.05145952,-0.01568263,-0.006066771,0.00608313,-0.003717933,0.005114956,-0.0001019719,-0.01248396,-0.2518705404749992,1.7488588730319987,-3.412004251399998,-0.3475156,0.02954808,-0.05870388
2023-10-31 11:08:31.687000064,-0.05516264,0.0513314,-0.01560859,0.005122841,0.008665713,-0.008762869,0.004877158,0.0003663269,-0.0130318,-0.2469933824749992,1.7492251999319988,-3.4250360513999984,-0.3474474,0.02957821,-0.05881722
2023-10-31 11:08:31.700999936,-0.05533976,0.0510264,-0.01553659,0.01501687,0.01654662,-0.0117176,0.005024329,0.0005315325,-0.01349545,-0.2419690534749992,1.7497567324319987,-3.438531501399998,-0.3473734,0.0295916,-0.05900658
2023-10-31 11:08:31.713999872,-0.05537353,0.05081323,-0.01559438,0.01476043,0.02174744,-0.009843496,0.005088392,0.0003716092,-0.01413539,-0.2368806614749992,1.7501283416319986,-3.4526668913999985,-0.3473028,0.02959825,-0.05923062
2023-10-31 11:08:31.728000000,-0.05541392,0.05068389,-0.01572084,0.009269028,0.02515601,-0.006155038,0.005197171,-0.0001732434,-0.01465441,-0.2316834904749992,1.749955098231999,-3.4673213013999984,-0.3472283,0.02959082,-0.05945944
2023-10-31 11:08:31.742000128,-0.05540351,0.05057999,-0.0156636,0.006069052,0.02480574,-0.0001280827,0.005277726,-0.0006980695,-0.01523222,-0.2264057644749992,1.7492570287319986,-3.4825535213999985,-0.3471468,0.02955929,-0.0597128
2023-10-31 11:08:31.755000064,-0.05545672,0.05035764,-0.01559037,0.004290204,0.02771695,-0.004879022,0.005766606,-0.0004203934,-0.01547991,-0.2206391584749992,1.7488366353319986,-3.4980334313999983,-0.3470518,0.02955133,-0.05996922
2023-10-31 11:08:31.769999872,-0.05544961,0.05018646,-0.01569238,0.005721536,0.0216516,-0.0004945905,0.005833608,9.793424e-05,-0.01573021,-0.2148055504749992,1.7489345695719989,-3.5137636413999984,-0.3469681,0.02956856,-0.06020802
2023-10-31 11:08:31.785000192,-0.05556218,0.05009708,-0.01598365,0.01088444,0.0209939,0.009416794,0.006350935,0.0002660642,-0.01583847,-0.2084546154749992,1.7492006337719987,-3.5296021113999982,-0.3468668,0.02959368,-0.06043763
2023-10-31 11:08:31.798000128,-0.05574056,0.05009866,-0.01617897,0.01100126,0.01636456,0.01203043,0.006976034,0.0006449259,-0.01603279,-0.2014785814749992,1.7498455596719988,-3.5456349013999984,-0.3467638,0.02963522,-0.06066238
2023-10-31 11:08:31.811000064,-0.05578984,0.05002114,-0.01607327,0.01461105,0.01298873,0.009813482,0.007363076,0.0008140567,-0.01625991,-0.1941155054749992,1.7506596163719987,-3.5618948113999984,-0.3466762,0.02967473,-0.06088866
2023-10-31 11:08:31.824999936,-0.05605259,0.0498639,-0.01622028,0.01969368,0.01147643,0.008678384,0.007462011,0.001518868,-0.01639669,-0.1866534944749992,1.7521784843719987,-3.5782915013999985,-0.3465925,0.02975145,-0.06112162
2023-10-31 11:08:31.840000000,-0.05643619,0.04989642,-0.01624957,0.03321595,0.01027553,0.006032842,0.007603361,0.002283935,-0.01658702,-0.1790501334749992,1.7544624193719986,-3.5948785213999983,-0.3464845,0.02980363,-0.06135574
2023-10-31 11:08:31.852999936,-0.05672527,0.0497781,-0.01635895,0.04264897,0.008238684,0.005148306,0.007839899,0.00272458,-0.01695904,-0.1712102344749992,1.7571869993719986,-3.6118375613999993,-0.3463711,0.02985995,-0.06160847
2023-10-31 11:08:31.868000000,-0.0569423,0.04988518,-0.01638654,0.0410724,0.005314019,0.003923671,0.007726254,0.0025165,-0.01747167,-0.1634839804749992,1.7597034993719989,-3.6293092313999984,-0.3462712,0.02988195,-0.06184939
2023-10-31 11:08:31.880999936,-0.05711684,0.04967651,-0.01660566,0.03617421,0.01057435,0.00990928,0.007642086,0.001295084,-0.01808563,-0.1558418944749992,1.7609985833719983,-3.6473948613999982,-0.3461778,0.02986638,-0.06211689
2023-10-31 11:08:31.895000064,-0.05711003,0.04957628,-0.01666949,0.0258662,0.01600066,0.01030783,0.007311469,0.0004989792,-0.01849817,-0.1485304254749992,1.7614975625719986,-3.6658930313999982,-0.3460938,0.02984227,-0.06238098
2023-10-31 11:08:31.908999936,-0.05733898,0.04947788,-0.01680886,0.02385634,0.01500523,0.0116296,0.006656558,0.0004084526,-0.01877143,-0.1418738674749992,1.7619060151719987,-3.6846644613999984,-0.3460164,0.02985506,-0.06265619
2023-10-31 11:08:31.923000064,-0.05761629,0.04934487,-0.01695003,0.02696026,0.01814398,0.009284999,0.006606308,0.000480519,-0.0185843,-0.1352675594749992,1.7623865341719986,-3.7032487614,-0.3459252,0.02987074,-0.06292
2023-10-31 11:08:31.936999936,-0.05773043,0.04912835,-0.01703627,0.02609768,0.01811144,0.01054731,0.006573588,0.0009253237,-0.01830933,-0.1286939714749992,1.7633118578719986,-3.721558091399999,-0.345835,0.02994828,-0.06317084
2023-10-31 11:08:31.951000064,-0.05789341,0.04919949,-0.01713593,0.02593535,0.0148193,0.01123191,0.006692869,0.000949192,-0.0181661,-0.1220011024749992,1.7642610498719986,-3.739724191399999,-0.3457375,0.0300356,-0.06339978
2023-10-31 11:08:31.964000000,-0.0579235,0.04918519,-0.01726194,0.02014056,0.01003733,0.01165875,0.006808322,0.001065691,-0.01842097,-0.1151927804749992,1.7653267408719986,-3.758145161399999,-0.3456392,0.03010559,-0.06365141
2023-10-31 11:08:31.977999872,-0.0580948,0.04905543,-0.01730689,0.01890936,0.01027493,0.01081628,0.006903696,0.001100085,-0.01884353,-0.1082890844749992,1.7664268258719986,-3.776988691399999,-0.3455504,0.03011289,-0.0639592
2023-10-31 11:08:31.992000000,-0.0580813,0.04898748,-0.01736311,0.01792827,0.008695512,0.006425536,0.006712289,0.001210547,-0.01973912,-0.1015767954749992,1.7676373728719983,-3.796727811399999,-0.3454393,0.03016926,-0.0642478
2023-10-31 11:08:32.006000128,-0.05823696,0.04895574,-0.01737796,0.01536121,0.008112392,0.004610586,0.006520888,0.001365427,-0.0206228,-0.0950559074749992,1.7690027998719986,-3.817350611399999,-0.3454348,0.03013295,-0.06459523
2023-10-31 11:08:32.020000000,-0.05833639,0.04893398,-0.01743843,0.015427,0.006927841,0.005540794,0.006037501,0.001355368,-0.02163788,-0.0890184064749992,1.7703581678719986,-3.838988491399999,-0.3454032,0.030117,-0.0649652
2023-10-31 11:08:32.033999872,-0.05839225,0.04893389,-0.01744611,0.01261619,0.004231234,0.003513806,0.005495078,0.001373728,-0.02268925,-0.0835233284749992,1.7717318958719983,-3.861677741399999,-0.3453606,0.03014473,-0.06529739
