time,acceleration_x,acceleration_y,acceleration_z
1703143341094,-0.005659694,0.01405128,0.002770024
1703143341103,-0.0005287249999999,0.03694041,0.0067764049999999
1703143341118,-9.299759999999988e-05,0.06222523,0.010552628
1703143341137,-0.0053458946,0.0872296,0.013517391
1703143341155,-0.0147328776,0.11400309,0.017489867
1703143341175,-0.0293633076,0.14576278,0.022493335
1703143341191,-0.0481387176,0.1836137,0.027892906
1703143341209,-0.0690478176,0.22843371,0.033399751
1703143341225,-0.0919599776,0.27747589,0.037435228
1703143341242,-0.1168690476,0.32716866,0.038825297
1703143341259,-0.1430919876,0.37333596,0.036831708
1703143341275,-0.1680195876,0.41423981,0.031787589
1703143341291,-0.1915396176,0.45054447,0.026324253
1703143341306,-0.2128962475999999,0.48207305,0.020995667
1703143341321,-0.2350313775999999,0.50845426,0.015856933
1703143341336,-0.2566279275999999,0.53396518,0.012193855
1703143341351,-0.2777117676,0.5567173200000001,0.010880434
1703143341365,-0.2996117076,0.5742648600000001,0.012195794
1703143341380,-0.3208075676,0.5865548500000001,0.013620207
1703143341394,-0.3391096676,0.5914346450000001,0.017100151
1703143341409,-0.3538506776,0.5899534250000001,0.021750003
1703143341423,-0.3647933276,0.5816032450000002,0.028876915
1703143341436,-0.3720295155999999,0.5668931350000002,0.038538527
1703143341450,-0.3755369046,0.5463718950000002,0.050490357
1703143341464,-0.3755359606464,0.5206637350000002,0.064424517
1703143341479,-0.3711580776463999,0.4930093350000001,0.080170527
1703143341493,-0.3622847306464,0.4658673550000001,0.097888007
1703143341507,-0.3499435706463999,0.4397372650000001,0.116391157
1703143341521,-0.3348182906463999,0.4141205550000001,0.1347027469999999
1703143341536,-0.3187523806463999,0.3892714950000002,0.1523829169999999
1703143341551,-0.3018669506463999,0.3658951850000002,0.1691521369999999
1703143341564,-0.2853444206464,0.3456960050000002,0.185420757
1703143341578,-0.2697089006463999,0.3295952950000002,0.2012583869999999
1703143341592,-0.2551682006463999,0.3176035550000001,0.2163081969999999
1703143341606,-0.2425155806463999,0.3074374650000001,0.230811837
1703143341620,-0.2316750606463999,0.2973747450000001,0.2435442069999999
1703143341634,-0.2226567296463999,0.2854218950000001,0.2550078369999999
1703143341647,-0.2163195016463999,0.2702783950000001,0.2654166469999999
1703143341661,-0.2114337766463999,0.2516789650000001,0.2746896369999999
1703143341675,-0.2050589946463999,0.2299159350000001,0.2840699099999999
1703143341689,-0.1959641396463999,0.2081973150000001,0.2940585129999999
1703143341704,-0.1830170496463999,0.1898516950000001,0.3053326229999999
1703143341717,-0.1671244796463999,0.173936595,0.3172142329999999
1703143341731,-0.1542523596463999,0.158374945,0.3270126619999999
1703143341745,-0.1432955896463999,0.141551985,0.3343565149999999
1703143341758,-0.1332079796463999,0.1253194350000001,0.3399641319999999
1703143341773,-0.1243869436463999,0.112418135,0.3449619239999999
1703143341786,-0.1167410896463999,0.104395249,0.3498315409999999
1703143341800,-0.1102829726463999,0.100483682,0.3544025029999999
1703143341813,-0.1046529216463999,0.09899528,0.3575751649999999
1703143341828,-0.0996432336463999,0.097984173,0.3584309308999999
1703143341842,-0.0950805546463999,0.0972674971,0.3569576848999999
1703143341857,-0.0915975606463999,0.0977200394,0.3539330589
1703143341870,-0.0898524276463999,0.1003070934,0.3495938208999999
1703143341883,-0.0898256145363999,0.1048766184,0.3442830769
1703143341897,-0.0916985965363999,0.1113137314,0.3382788609
1703143341911,-0.0945985385363999,0.1195789194,0.3320240289
1703143341925,-0.0982247715363999,0.1290468264,0.3261586669
1703143341940,-0.1017017825363999,0.1390636364,0.3209927319
1703143341953,-0.1046447405363999,0.1490685464,0.3164818999
1703143341967,-0.1063930945363999,0.1583838324,0.3125534158999999
1703143341981,-0.1067332208363999,0.1665855094,0.3088104028999999
1703143341995,-0.1059730532363999,0.1727795664,0.3055238848999999
1703143342009,-0.1044467852363999,0.1769537364,0.3026844998999999
1703143342023,-0.1020571102363999,0.1792390554,0.3004561738999999
1703143342037,-0.0993712582363999,0.1805089044,0.2991320328999999
1703143342051,-0.0969270522363999,0.1810656275,0.2984133600999999
1703143342064,-0.0952658822363999,0.1807876089,0.2983450178199999
1703143342078,-0.0950170020363999,0.1805046725,0.2995080288199999
1703143342093,-0.0967550430363999,0.1812902122,0.3026824858199999
1703143342107,-0.1008425060363999,0.1848030742,0.3074873738199999
1703143342120,-0.1055992010363999,0.1913112142,0.3142437408199999
1703143342134,-0.1112170060363999,0.1997525862,0.3222005458199999
1703143342148,-0.1183232280363999,0.2095808662,0.3299776318199999
1703143342162,-0.1272329910363999,0.2187280572,0.3374918538199999
1703143342176,-0.1376318010363999,0.2269354552,0.3438854128199999
1703143342190,-0.1486577910363999,0.2345911012,0.3499313618199999
1703143342204,-0.1598351510363999,0.2420172072,0.3562343458199999
1703143342218,-0.1710536310363999,0.2493588252,0.3629067968199999
1703143342231,-0.1823634110363999,0.2573644122,0.3700318288199999
1703143342246,-0.1937092510363999,0.2660625702,0.3775347468199999
1703143342260,-0.2050858210363999,0.2744832252,0.3847991458199999
1703143342273,-0.2167714010363999,0.2825046352,0.3917419038199999
1703143342288,-0.2289414910363999,0.2902273632,0.3988313068199999
1703143342301,-0.2414125210363999,0.2978166242,0.4069016618199998
1703143342315,-0.2540387510363999,0.3054411432,0.4162632398199998
1703143342329,-0.2674103810363999,0.3123848332,0.4263886198199998
1703143342342,-0.2812182610363999,0.3177551092,0.4369686198199998
1703143342356,-0.2958662210363999,0.3212740882,0.4475164898199998
1703143342370,-0.3116413610363999,0.3230923082,0.4579051298199998
1703143342384,-0.3279852810363999,0.3237550221,0.4688024998199999
1703143342398,-0.3445659610363999,0.3238522303,0.4805730998199999
1703143342412,-0.3616668110363999,0.3240499457,0.4936552598199999
1703143342426,-0.3787167610363999,0.3241794867,0.5079970598199999
1703143342440,-0.3950619710363999,0.3239371253,0.5227483098199999
1703143342454,-0.4102773210363999,0.3228199423,0.5370270198199999
1703143342461,-0.4246924210364,0.3211371323,0.5508969698199999
1703143342475,-0.4376683310363999,0.3198178993,0.5641515798199999
1703143342489,-0.4493976010364,0.3218264443,0.5772388198199998
1703143342504,-0.4597357510363999,0.3290759283,0.5907474498199998
1703143342517,-0.4687692500363999,0.3410771883,0.6044117398199998
1703143342530,-0.4755272970363999,0.3564525883,0.6180140198199998
1703143342544,-0.4800400130364,0.3731701483,0.6306516698199998
1703143342560,-0.4816196280363999,0.3893166383,0.6413537498199997
1703143342572,-0.4800707410363999,0.4041533183,0.6496857418199997
1703143342586,-0.4754873270363999,0.4172945583,0.6551611668199997
1703143342599,-0.4678816620363999,0.4289789283,0.6582909098199997
1703143342613,-0.4578528520363999,0.4402113683,0.6605564028199997
1703143342627,-0.4458518220363999,0.4521109083,0.6631430388199997
1703143342641,-0.4319509920363999,0.4647021083,0.6669171558199997
1703143342655,-0.4164237820363999,0.4770780683,0.6716442068199997
1703143342669,-0.3991059620364,0.4877041783,0.6765878808199997
1703143342683,-0.3800260620364,0.4952855653,0.6815773848199996
1703143342697,-0.3595652420364,0.4992570113,0.6863107158199996
1703143342711,-0.3381436620364,0.4999787312,0.6910423898199995
1703143342725,-0.3158207520364,0.4984903562,0.6961188038199996
1703143342739,-0.2930298820364,0.4965934302,0.7019188208199996
1703143342753,-0.2696162520364,0.4950426332,0.7092359258199996
1703143342767,-0.2457192120364,0.4932664822,0.7180737718199997
1703143342781,-0.2212407420363999,0.4894203832,0.7276267108199996
1703143342795,-0.1962194520363999,0.4823923872,0.7371580498199997
1703143342809,-0.1704894620363999,0.4729470142,0.7460701688199997
1703143342823,-0.1444094920363999,0.4629027442,0.7546727828199996
1703143342836,-0.1182405520363999,0.4544643152,0.7633477088199996
1703143342851,-0.0923321520363999,0.4481412712,0.7721557438199996
1703143342865,-0.0667484520363999,0.4434408242,0.7806154948199996
1703143342878,-0.0417154420363999,0.4395102732,0.7879796538199996
1703143342893,-0.0173653920363999,0.4360871032,0.7939875178199995
1703143342906,0.0062842479636,0.4332068042000001,0.7985287478199995
1703143342920,0.0288145979636,0.4319467562,0.8014230368199995
1703143342934,0.0502270979636,0.4322969348,0.8022128225199995
1703143342949,0.0707051879636,0.4337179418,0.8007162495199995
1703143342962,0.0903855579636,0.4355080758,0.7965325945199996
1703143342976,0.1089794379636,0.4370822148,0.7897501925199996
1703143342990,0.1264207479636,0.4381059578,0.7807787335199996
1703143343004,0.1423917479636,0.4387189522,0.7698480135199997
1703143343019,0.1568383279636,0.4394840344,0.7575211235199997
1703143343032,0.1697743579636,0.4403286292,0.7438716635199997
1703143343046,0.1811065579636,0.4414828611999999,0.7290491035199996
1703143343060,0.1908827219636,0.4422656701999999,0.7131417935199996
1703143343074,0.1988279159636,0.4423417538399999,0.6964780235199997
1703143343088,0.2047795019636,0.4421944926399999,0.6795625635199997
1703143343102,0.2089173879636,0.4420187447399999,0.6631292835199997
1703143343116,0.2109399169636,0.4419181107399999,0.6473699535199997
1703143343130,0.2109852445536,0.4406962367399999,0.6319665535199998
1703143343144,0.2094014895536,0.4371173857399999,0.6166898935199997
1703143343158,0.2064155545536,0.4305767517399999,0.6007908835199997
1703143343172,0.2024150485536,0.4221612157399999,0.5839282435199996
1703143343187,0.1979225525536,0.4135915857399999,0.5663635035199996
1703143343200,0.1932507165536,0.4066435527399999,0.5486603235199996
1703143343213,0.1884047805536,0.4019540937399999,0.5310599035199997
1703143343228,0.1830848225536,0.3991521767399999,0.5134438935199996
1703143343241,0.1772513585536,0.3977077047399999,0.4957507135199996
1703143343255,0.1709363945536,0.3965389017399999,0.4778524935199996
1703143343269,0.1643472175536,0.3950773197399999,0.4598176435199996
1703143343283,0.1570689545536,0.3931433357399999,0.4416318935199996
1703143343297,0.1491736185536,0.3915564407399999,0.4233238935199996
1703143343311,0.1409589755536,0.3901959117399999,0.4050926235199996
1703143343325,0.1324444395536,0.3888066757399999,0.3868146035199996
1703143343340,0.1236727245536,0.3864178007399999,0.3681595535199996
1703143343353,0.1145961985536,0.3829395477399999,0.3495342235199996
1703143343367,0.1057815675536,0.3780204227399999,0.3314794835199996
1703143343381,0.0973623335536,0.3720840327399999,0.3145633935199996
1703143343395,0.0893015475536,0.3654196537399999,0.2986478335199996
1703143343409,0.0818202025536,0.3581443397399999,0.2833964035199996
1703143343423,0.0754921105536,0.3507943857399999,0.2684583335199996
1703143343437,0.0703630525536,0.3439675077399999,0.2536591335199996
1703143343451,0.0659483995536,0.3380069007399999,0.2389843435199996
1703143343465,0.0621483375536,0.33334226974,0.2245266435199996
1703143343478,0.0589593495536,0.33004778174,0.2104402635199996
1703143343493,0.0561528115536,0.32865907674,0.1967838535199995
1703143343506,0.0536709955536,0.32923982684,0.1837637635199995
1703143343520,0.0513707955536,0.33137421784,0.1714118135199995
1703143343534,0.0491499205536,0.33447313284,0.1595267835199995
1703143343548,0.0468645525536,0.33749770884,0.1476412735199996
1703143343562,0.0443834115536,0.33966109584,0.1353308035199996
1703143343577,0.0417590855536,0.34093777084,0.1226245235199996
1703143343591,0.0388561515536,0.34164956174,0.1099170435199995
1703143343604,0.0357777315536,0.34295797674,0.0977336535199995
1703143343618,0.0326256035536,0.3449188777400001,0.0865766735199995
1703143343632,0.0290245295536,0.34773984774,0.0762731735199996
1703143343646,0.0254066345536,0.35083781274,0.0665484235199996
1703143343660,0.0217759385536,0.35370533674,0.0571414865199995
1703143343674,0.0180409215536,0.35610562574,0.0478055385199995
1703143343687,0.0143195145536,0.35812453974,0.0384773805199995
1703143343701,0.0106614545536,0.36011357874,0.0291776115199995
1703143343715,0.0067584705536,0.36195785974,0.0197823425199995
1703143343730,0.0028344105536,0.36389584074,0.0105000405199995
1703143343743,-0.0013166674463999,0.36513575374,0.0012017865199995
1703143343757,-0.0056805094463999,0.36549905024,-0.0078794914800004
1703143343771,-0.0105168054463999,0.36524491484,-0.0166005584800004
1703143343785,-0.0155355394463999,0.36417175284,-0.0249359124800004
1703143343799,-0.0207749334463999,0.36281344684,-0.0328269994800004
1703143343814,-0.0261207284463999,0.36102351984,-0.0402098074800004
1703143343827,-0.0314749204463999,0.35883785184,-0.0469476554800004
1703143343841,-0.0368744004463999,0.35679486884,-0.0529629144800004
1703143343855,-0.0423118184463999,0.35473701184,-0.0582438844800004
1703143343869,-0.0478110274463999,0.35270645784,-0.0627577824800004
1703143343883,-0.0533007664463999,0.35067542784,-0.0665112194800004
1703143343896,-0.0587691744463999,0.34859497184,-0.0692629744800004
1703143343910,-0.0643454624463999,0.3466586038399999,-0.0709768594800004
1703143343924,-0.0696830094463999,0.34535754484,-0.0717801255800004
1703143343938,-0.0750047164463999,0.3453449498099999,-0.0713782361800004
1703143343952,-0.0801581144463999,0.34638534681,-0.0699751161800004
1703143343967,-0.0851333294463999,0.34791738081,-0.0675356131800004
1703143343980,-0.0898421254463999,0.34958912081,-0.0639834531800004
1703143343994,-0.0944970114463999,0.3506820318099999,-0.0595410461800004
1703143344008,-0.0989338694463999,0.3505180793099999,-0.0541837191800004
1703143344022,-0.1028327084463999,0.34862106131,-0.0478279941800004
1703143344036,-0.1062121964463999,0.34544323731,-0.0406623571800004
1703143344050,-0.1090226924463999,0.3421507193099999,-0.0328536081800004
1703143344064,-0.1115432364463999,0.3392638093099999,-0.0242799061800004
1703143344077,-0.1132808614463999,0.3372530563099999,-0.0148443401800004
1703143344091,-0.1143673134463999,0.33537293431,-0.0041773901800004
1703143344105,-0.1152642667463999,0.33331923231,0.0070095498199995
1703143344119,-0.1156998311463999,0.33016446731,0.0185723998199995
1703143344132,-0.1157807222763999,0.3259122783099999,0.0299578098199995
1703143344146,-0.1152817816763999,0.32084941731,0.0408432398199995
1703143344160,-0.1146894103763999,0.31515061531,0.0513181798199995
1703143344174,-0.1137360037763999,0.30968093731,0.0617145898199995
1703143344188,-0.1125252797763999,0.30488593031,0.0720659798199995
1703143344202,-0.1108852327763999,0.30097216631,0.0824276598199995
1703143344216,-0.1090270857763999,0.29733732131,0.0926936998199995
1703143344230,-0.1070838497763999,0.29367215231,0.1029220498199995
1703143344244,-0.1047278867763999,0.29023532931,0.1134599598199995
1703143344258,-0.1022244747763999,0.28692491131,0.1240369898199995
1703143344272,-0.0995306587763999,0.28394410531,0.1344908898199995
1703143344285,-0.0967382717763999,0.28125198331,0.1445805398199995
1703143344299,-0.0936806987763999,0.27866545331,0.1545143008199995
1703143344313,-0.0905797877764,0.27682682931,0.1643317178199995
1703143344327,-0.0873610897763999,0.27602674911,0.1742605878199995
1703143344342,-0.0841949287763999,0.27707377211,0.1844818378199995
1703143344356,-0.0808606807763999,0.28017669211,0.1951151178199995
1703143344369,-0.0773506757764,0.28501635611,0.2059392478199995
1703143344382,-0.0735705767764,0.29126409611,0.2169523178199995
1703143344396,-0.0696233607764,0.29828111111,0.2278525878199995
1703143344410,-0.0653910517763999,0.30566724111,0.2386333778199995
1703143344424,-0.0608865597763999,0.31312831911,0.2497005878199995
1703143344439,-0.0562282597763999,0.31989146011,0.2609874978199995
1703143344452,-0.0513792087763999,0.32552269811,0.2728117978199995
1703143344466,-0.0459526777764,0.32989527611,0.2852192378199995
1703143344479,-0.0402212217763999,0.33364609111,0.2980935178199995
1703143344493,-0.0341470437763999,0.33716798011,0.3113057278199995
1703143344508,-0.0277766377763999,0.34058028211,0.3245154278199995
1703143344522,-0.0213859967763999,0.34385259011,0.3372520378199995
1703143344536,-0.0152171617763999,0.34642330511,0.3491948178199995
1703143344550,-0.0094404927763999,0.34835939011,0.3604231978199995
1703143344564,-0.0040941647763999,0.34988327011,0.3712145378199994
1703143344578,0.0011061172236,0.3512895071099999,0.3819884178199995
1703143344592,0.0055194442236,0.3529500941099999,0.3926484378199995
1703143344606,0.0093021852236,0.3553414181099999,0.4033285178199994
1703143344620,0.0123211892236,0.3580479001099999,0.4137539978199994
1703143344633,0.0147202282236,0.3603465071099999,0.4236594828199994
1703143344648,0.0164692402236,0.3616383041099999,0.4327590018199994
1703143344662,0.0177946492236,0.3615787535499999,0.4408939868199994
1703143344675,0.0185167354236,0.3605850275499999,0.4481877858199994
1703143344689,0.0189069114236,0.3591177535499999,0.4549792518199994
1703143344703,0.0191024206236,0.3575366815499999,0.4614068318199994
1703143344717,0.0190613225836,0.3563378935499999,0.4678295178199994
1703143344731,0.0186770773836,0.3554889729499998,0.4741901338199994
1703143344745,0.0178531835836,0.3550217970499998,0.4803068578199994
1703143344759,0.0172004549836,0.3546361360499999,0.4864424428199994
1703143344773,0.0163282053836,0.3545324010499999,0.4927868138199994
1703143344787,0.0155815939836,0.3544983302999999,0.4993113698199994
1703143344800,0.0146972773836,0.3545046038049999,0.5059349378199994
1703143344815,0.0138703669836,0.3540630791049999,0.5121446068199994
1703143344828,0.0134241768836,0.3529669551049999,0.5174473708199994
1703143344842,0.0128220181836,0.3515929601049999,0.5217526718199994
1703143344856,0.0119610295836,0.3505404991049999,0.5252033938199994
1703143344871,0.0111979191836,0.3502460316049999,0.5278758148199993
1703143344884,0.0100496221836,0.3510678362049999,0.5298855958199994
1703143344899,0.0084494141836,0.3530169532049999,0.5313843478199994
1703143344912,0.0065030371836,0.3556063932049998,0.5323228984199995
1703143344926,0.0042885681836,0.3580554142049998,0.5325734503199995
1703143344940,0.0016206031836,0.3599419772049999,0.5320258523199994
1703143344954,-0.0015214148163999,0.3607442374049999,0.5307856243199994
1703143344968,-0.0050850938163999,0.3608545035049998,0.5289323323199995
1703143344982,-0.0092006368163999,0.3601155987049999,0.5263367673199995
1703143344995,-0.0136057778163999,0.3583812467049999,0.5232847243199995
1703143345009,-0.0185261448163999,0.3564926537049999,0.5198435643199995
1703143345024,-0.0239846998163999,0.3548740977049999,0.5166352403199994
1703143345037,-0.0298865328163999,0.3536177017049999,0.5136368783199994
1703143345051,-0.0360070098163999,0.3521922437049999,0.5108303363199994
1703143345065,-0.0424203128163999,0.3507925967049999,0.5083116313199995
1703143345078,-0.0489410298163999,0.3491571087049999,0.5063740813199995
1703143345093,-0.0555315678163999,0.3473182897049999,0.5053130913199995
1703143345107,-0.0624484138163999,0.3455915487049999,0.5051394801199994
1703143345121,-0.0697918158164,0.3430913357049999,0.5055986249199994
1703143345136,-0.0775371578164,0.3392921057049999,0.5066285909199995
1703143345149,-0.0857482628164,0.3345713407049999,0.5087228879199994
1703143345163,-0.0945265328164,0.3289469737049999,0.5120227639199995
1703143345176,-0.1041153718164,0.3230904067049999,0.5165531089199995
1703143345190,-0.1144564318164,0.3175613437049999,0.5224854179199995
1703143345204,-0.1255618618164,0.3124859637049999,0.5298821609199995
1703143345218,-0.1374678318164,0.3074432957049999,0.5386964209199995
1703143345232,-0.1498698818163999,0.302447508705,0.5487508909199995
1703143345246,-0.1626472718163999,0.297436787705,0.5599716709199996
1703143345260,-0.1753764918163999,0.292891548705,0.5723114309199996
1703143345273,-0.1880562518163999,0.288701994705,0.5855318409199995
1703143345288,-0.2003712318164,0.285653695705,0.5997843409199995
1703143345302,-0.2118655118163999,0.283514604705,0.6151691209199995
1703143345316,-0.2225772218164,0.2826575915050001,0.6319116809199995
1703143345329,-0.2322938788163999,0.2829276127050001,0.6500891909199995
1703143345343,-0.2410350548163999,0.2833027795050001,0.6695850709199995
1703143345357,-0.2488348618163999,0.2835819304050001,0.6904853209199995
1703143345371,-0.2557376188163999,0.2834192655050001,0.7128140609199994
1703143345385,-0.2621517758163999,0.2824013845050001,0.7366904609199995
1703143345399,-0.2680149808163999,0.2807766775050001,0.7622961709199995
1703143345413,-0.2737964878163999,0.2783451095050001,0.7894989809199995
1703143345427,-0.2794792568163999,0.2752137575050001,0.8185478109199995
1703143345441,-0.2854189418163999,0.2711891885050002,0.8495416409199995
1703143345455,-0.2917325868163999,0.2670467975050001,0.8825081009199995
1703143345468,-0.2984731598163999,0.2623308225050001,0.9174532609199996
1703143345482,-0.3058233848163998,0.2572412335050001,0.9544477509199996
1703143345497,-0.3137116778163998,0.2510629105050002,0.9934700709199996
1703143345510,-0.3222707618163998,0.2443635085050002,1.0345249609199996
1703143345523,-0.3316256388163998,0.2375223665050002,1.0781461909199996
1703143345538,-0.3421098988163998,0.2312948995050002,1.1246227309199996
1703143345552,-0.3536813588163998,0.2256340905050002,1.1741202709199996
1703143345566,-0.3664187888163998,0.2205472135050002,1.2264452309199996
1703143345579,-0.3799919988163998,0.2162541685050002,1.2816558809199996
1703143345593,-0.3947394288163998,0.2129698815050002,1.3397222109199995
1703143345608,-0.4104739488163998,0.2104238675050002,1.4007511309199996
1703143345622,-0.4272546588163998,0.2088003435050002,1.4653140209199995
1703143345637,-0.4448802588163998,0.2073435765050002,1.5336471609199995
1703143345649,-0.4638433188163998,0.2056933735050002,1.6054583609199995
1703143345663,-0.4843609288163998,0.2031900315050002,1.6810593709199997
1703143345677,-0.5071583188163998,0.1998590355050002,1.7610351209199997
1703143345691,-0.5323310788163998,0.1965613615050002,1.8457645609199995
1703143345705,-0.5601104888163998,0.1937933665050002,1.93554362092
1703143345719,-0.5901492188163998,0.1918125165050002,2.0306214609199995
1703143345732,-0.6225646688163998,0.1898394645050002,2.13115356092
1703143345746,-0.6570000488163998,0.1871476475050002,2.2368265609199995
1703143345761,-0.6930798488163998,0.1833611275050002,2.3481564609199994
1703143345774,-0.7307331088163999,0.1788466765050002,2.46563906092
1703143345788,-0.7702065888163998,0.1741699115050002,2.58903346092
1703143345802,-0.8109444888163998,0.1700124345050002,2.71870876092
1703143345815,-0.8533362188163998,0.1658000795050002,2.85443536092
1703143345829,-0.8979142088163997,0.1615949075050002,2.9964538609199995
1703143345843,-0.9447721988163996,0.1573393295050002,3.1445068609199995
1703143345857,-0.9944198288163996,0.1530170205050002,3.2983299609199994
1703143345871,-1.0472319088163995,0.1488594745050002,3.4583785609199995
1703143345885,-1.1036577588163996,0.1447713115050002,3.62427126092
1703143345899,-1.1640259688163996,0.1410017845050002,3.79607066092
1703143345912,-1.2286680188163996,0.1375434165050002,3.97330056092
1703143345926,-1.2977881688163997,0.1344568175050002,4.155851760919999
1703143345940,-1.3714693788163996,0.1314297345050002,4.343334960919999
1703143345954,-1.4495311988163997,0.1290232585050002,4.535960160919999
1703143345968,-1.5320741488163998,0.1266170025050002,4.733689760919999
1703143345982,-1.6187759288164,0.1236439125050002,4.936758160919999
1703143346003,-1.7093935288164,0.1195114275050002,5.144492560919999
1703143346010,-1.8040385888164,0.1134139835050002,5.357409160919999
1703143346022,-1.9015474788164,0.1054594945050002,5.574786860919999
1703143346036,-2.0018162788164,0.0945447645050002,5.796844760919999
1703143346050,-2.1038986788164,0.0797178545050002,6.023423660919999
1703143346064,-2.2076618788164,0.0602052745050002,6.254334760919999
1703143346077,-2.3119798788164,0.0352068745050002,6.490028860919999
1703143346091,-2.4161349788164,0.0046393245050002,6.730921860919999
1703143346105,-2.5193419788164,-0.0317109254949997,6.977526860919999
1703143346119,-2.6208331788164,-0.0725946754949997,7.230343160919999
1703143346133,-2.7198059988164,-0.1169209854949997,7.490582560919998
1703143346148,-2.8157187488164,-0.1628130054949997,7.758862860919998
1703143346161,-2.9080493588164,-0.2063892754949997,8.036816260919998
1703143346175,-2.9962810088164,-0.2434592654949997,8.325656060919998
1703143346189,-3.0794186288164,-0.2720438954949997,8.627158360919998
1703143346203,-3.1575452288164,-0.2941476754949997,8.940276260919997
1703143346217,-3.2301802788164,-0.3114919854949998,9.264443260919997
1703143346230,-3.2965210288164,-0.3232661154949998,9.600955660919997
1703143346244,-3.3564140788164,-0.3277369394949997,9.950368060919995
1703143346258,-3.4094941388164,-0.3249633564949997,10.313195160919998
1703143346272,-3.4557502788164003,-0.3186196624949997,10.688953760919995
1703143346286,-3.4948838188164,-0.3114176914949997,11.078671660919998
1703143346300,-3.5279391688164004,-0.3021777284949997,11.48274956092
1703143346314,-3.5558496088164,-0.2893433684949997,11.90291556092
1703143346328,-3.5785352088164,-0.2761372984949997,12.33835776092
1703143346341,-3.5959448788164003,-0.2685559174949997,12.78711786092
1703143346356,-3.6085985388164,-0.2716906784949997,13.246944460919998
1703143346369,-3.6167000958164,-0.2879574784949997,13.71728676092
1703143346384,-3.6204073448164,-0.3163944184949998,14.198646060919998
1703143346397,-3.6200509016164,-0.3526802384949998,14.691379660919996
1703143346411,-3.6158371006164,-0.3946933784949998,15.196897660919998
1703143346425,-3.6080042456164,-0.4411913184949998,15.715737060919995
1703143346438,-3.5967767356164,-0.4930547684949998,16.248488660919996
1703143346452,-3.5824160256164,-0.5499578884949998,16.796574260919996
1703143346466,-3.5651158256164,-0.6104238484949999,17.360317360919996
1703143346480,-3.5450258256164,-0.6735438184949999,17.940911160919995
1703143346494,-3.5215167456163994,-0.7386759184949999,18.539827760919994
1703143346508,-3.4941515056163994,-0.8051298084949999,19.156297560919995
1703143346522,-3.4623211156164,-0.8724678684949999,19.78997306092
1703143346537,-3.4250877756163995,-0.940666588495,20.44126186092
1703143346550,-3.3826508756164,-1.009929488495,21.108995660919994
1703143346564,-3.3342412656164,-1.0797074084949998,21.793766260919995
1703143346578,-3.2796187856164,-1.149305698495,22.496821060919995
1703143346591,-3.2194991156163995,-1.218333548495,23.217726760919994
1703143346605,-3.1536785856164,-1.286672318495,23.95621066092
1703143346620,-3.0815117256164,-1.354089318495,24.71233396091999
1703143346633,-3.0024864756164,-1.417444618495,25.48484846091999
1703143346648,-2.9160887956164,-1.473882908495,26.273541960919992
1703143346661,-2.8214136256164,-1.522120118495,27.07875396092
1703143346675,-2.7186463256164,-1.563985498495,27.89909026092
1703143346689,-2.6077971256164,-1.600926408495,28.73344066092
1703143346703,-2.4897335256163995,-1.634264778495,29.58052846092
1703143346717,-2.3654244256163994,-1.662183728495,30.43969336092
1703143346730,-2.235607525616399,-1.676868628495,31.312989560919995
1703143346744,-2.101215825616399,-1.664348078495,32.20403936091999
1703143346758,-1.963062625616399,-1.617620828495,33.11530726091999
1703143346773,-1.822408625616399,-1.544589748495,34.04682226091999
1703143346786,-1.682508025616399,-1.458973618495,34.98972576091999
1703143346800,-1.5467584256163989,-1.370265058495,35.936243160919986
1703143346814,-1.4191084256163988,-1.286419778495,36.87979796091999
1703143346828,-1.3027264256163988,-1.215521768495,37.81427076091999
1703143346842,-1.2002373256163987,-1.163567998495,38.73507556091999
1703143346856,-1.1138475456163988,-1.130063338495,39.64003056091999
1703143346870,-1.0462783856163989,-1.106852098495,40.53007936091999
1703143346884,-0.9982210456163988,-1.080832638495,41.40940366091999
1703143346897,-0.9699283956163988,-1.041743988495,42.28012436091999
1703143346912,-0.9613108786163987,-0.986586508495,43.14255646091999
1703143346925,-0.9701208236163988,-0.919223938495,43.99539596091999
1703143346939,-0.9939415536163988,-0.8429514684949999,44.83790826092
1703143346953,-1.0295573036163987,-0.7565003284949999,45.67289796092
1703143346968,-1.0725769736163988,-0.657489058495,46.50514806092
1703143346981,-1.1199692836163988,-0.546766358495,47.33855926092
1703143346995,-1.1697111936163989,-0.430175158495,48.17482586092
1703143347009,-1.2207619636163989,-0.3160252584949999,49.01487926092
1703143347023,-1.272659183616399,-0.2110422584949999,49.86016556092
1703143347037,-1.3252240836163989,-0.1189639084949999,50.711954460920005
1703143347051,-1.378821383616399,-0.0423104684949999,51.57222906092
1703143347064,-1.433501693616399,0.016424361505,52.44272456092
1703143347078,-1.489270243616399,0.057197451505,53.32401096092
1703143347092,-1.546256383616399,0.079474791505,54.21621126092
1703143347106,-1.604896413616399,0.082892482505,55.11882816092
1703143347120,-1.665646073616399,0.066247652505,56.03187536092
1703143347134,-1.728699183616399,0.030673292505,56.95459296092
1703143347148,-1.794472853616399,-0.0216833574949999,57.88762966092
1703143347161,-1.863600593616399,-0.0878440774949999,58.83264706092
1703143347175,-1.936250283616399,-0.1650774574949999,59.78962206092
1703143347189,-2.013669723616399,-0.2536614574949999,60.75683066092
1703143347204,-2.097960843616399,-0.3542027574949999,61.73271636092
1703143347218,-2.189222573616399,-0.462020357495,62.71697176092
1703143347231,-2.286301633616399,-0.572577257495,63.71079186092
1703143347246,-2.3874037336163987,-0.684587957495,64.71406786092
1703143347259,-2.4929951336163985,-0.801188257495,65.72486486092
1703143347273,-2.6048232336163983,-0.923212157495,66.74194086092
1703143347287,-2.7232208336163986,-1.047136657495,67.76678886092
1703143347301,-2.8470071336163985,-1.166538557495,68.80180786092001
1703143347314,-2.974769933616398,-1.277996557495,69.84708286092001
1703143347328,-3.1062350336163984,-1.381984257495,70.90174886092001
1703143347342,-3.2425780336163985,-1.476987057495,71.96500186092001
1703143347356,-3.3837348336163986,-1.560530977495,73.03644586092001
1703143347370,-3.5295434336163987,-1.628523177495,74.11648086092
1703143347384,-3.679231533616399,-1.675155717495,75.20475786092001
1703143347398,-3.830633533616399,-1.688946867495,76.30347686092001
1703143347412,-3.981289033616399,-1.6515074574950002,77.41679486092002
1703143347426,-4.128725933616399,-1.554837797495,78.54892586092002
1703143347440,-4.270779533616398,-1.4097835974950002,79.69958586092002
1703143347454,-4.406435433616398,-1.2461945974950002,80.85826486092003
1703143347468,-4.535161233616398,-1.092111797495,82.01344486092003
1703143347482,-4.656056733616397,-0.966156797495,83.15730286092003
1703143347495,-4.766691933616397,-0.876184757495,84.28523486092003
1703143347509,-4.864343563616397,-0.812968437495,85.39893086092003
1703143347523,-4.946669233616397,-0.7602069274950001,86.50226886092003
1703143347537,-5.012386553616397,-0.7018732374950001,87.59839686092002
1703143347551,-5.064107653616397,-0.6312554574950001,88.68930886092002
1703143347565,-5.104299133616397,-0.5488636874950001,89.77408286092002
1703143347579,-5.1355219036163975,-0.4526478774950001,90.85155586092002
1703143347593,-5.161449153616397,-0.3394981774950001,91.92245686092002
1703143347606,-5.185287193616397,-0.2118672774950001,92.98854886092002
1703143347621,-5.208515773616397,-0.0757431774950001,94.05062086092002
1703143347635,-5.231265093616397,0.0605482225049998,95.10816586092002
1703143347648,-5.253498113616397,0.1887037225049999,96.16233286092005
1703143347662,-5.275332223616397,0.3031125225049998,97.21476586092002
1703143347675,-5.296766313616397,0.4001847625049999,98.26694886092002
1703143347690,-5.318086203616397,0.4771688525049999,99.32040986092002
1703143347704,-5.339727593616397,0.5303027225049999,100.37585586092004
1703143347718,-5.361487243616397,0.5579292025049999,101.43352986092005
1703143347731,-5.383202703616397,0.5591862765049999,102.49307986092003
1703143347745,-5.404843703616397,0.5335729265049999,103.55485986092005
1703143347759,-5.426275213616397,0.4812895765049998,104.61974586092003
1703143347773,-5.447047263616397,0.4061521265049999,105.68804686092004
1703143347788,-5.466490183616397,0.3103921265049998,106.76048586092004
1703143347801,-5.483267793616397,0.1975217265049998,107.83783886092004
1703143347815,-5.496490623616397,0.0738155265049998,108.92053586092004
1703143347829,-5.506034139616397,-0.0568362734950001,110.00939086092004
1703143347843,-5.512028582616397,-0.1920791734950001,111.10454286092003
1703143347857,-5.514042817616397,-0.3299631734950001,112.20564286092004
1703143347872,-5.511786681616397,-0.4690643734950002,113.31291586092004
1703143347885,-5.504488107616397,-0.6067719734950002,114.42716286092003
1703143347898,-5.491698877616397,-0.7391019734950002,115.54922186092004
1703143347912,-5.472535167616397,-0.8610385734950001,116.68015886092005
1703143347926,-5.446235997616397,-0.968931573495,117.81992886092004
1703143347940,-5.412210297616397,-1.0620347334950002,118.96804486092005
1703143347954,-5.369831587616397,-1.140327553495,120.12312586092004
1703143347968,-5.319930017616397,-1.2047297034950002,121.28290286092005
1703143347982,-5.263488407616396,-1.2558592134950002,122.44573186092003
1703143347996,-5.202176457616396,-1.2852159634950002,123.61413586092004
1703143348009,-5.137420887616396,-1.2696775934950002,124.79486786092004
1703143348024,-5.069465997616396,-1.192176123495,125.99565086092004
1703143348037,-4.998743867616396,-1.063597123495,127.22368186092004
1703143348051,-4.927853887616396,-0.913851423495,128.46935086092006
1703143348065,-4.859560677616396,-0.7685392234950001,129.72087086092006
1703143348079,-4.798148787616396,-0.6459004234950001,130.97040786092006
1703143348093,-4.747038347616396,-0.5464440734950001,132.21482986092005
1703143348107,-4.708218967616396,-0.4619011234950001,133.45089686092004
1703143348120,-4.682771117616396,-0.3801733934950001,134.67947186092005
1703143348134,-4.670890387616397,-0.2905506834950001,135.90259486092003
1703143348148,-4.6716377442163965,-0.1833822834950001,137.12224186092004
1703143348162,-4.681864264216396,-0.0517871834950001,138.34077686092004
1703143348177,-4.6998253342163965,0.1090159165049998,139.55839486092003
1703143348191,-4.7225635442163965,0.2927743165049998,140.77404686092004
1703143348204,-4.748772814216396,0.4876609165049999,141.98497186092004
1703143348218,-4.778069974216396,0.6815859165049999,143.18881086092003
1703143348232,-4.812119514216396,0.8648135165049999,144.38494486092003
1703143348246,-4.852275114216396,1.030413216505,145.57464286092002
1703143348260,-4.898830554216396,1.172365916505,146.75894186092003
1703143348273,-4.952012524216396,1.286151716505,147.93877386092004
1703143348287,-5.011692114216396,1.366393176505,149.11476286092002
1703143348301,-5.077590834216395,1.412815906505,150.28799386092
1703143348315,-5.149302474216396,1.425562366505,151.45949886092
1703143348329,-5.225888214216395,1.4061849965050002,152.63142986092
1703143348343,-5.306755714216395,1.3560509065050002,153.80568986092
1703143348357,-5.391723644216396,1.2792636065050005,154.98374186092002
1703143348371,-5.480958664216396,1.1784319065050002,156.16674386092
1703143348384,-5.574624544216396,1.056694006505,157.35565486092
1703143348398,-5.672565694216395,0.9165745065050002,158.55170086092
1703143348414,-5.775461494216395,0.7612717065050002,159.75561586092
1703143348426,-5.883359594216395,0.5950161065050001,160.96715286091998
1703143348440,-5.995490094216395,0.4214592065050001,162.18642386091997
1703143348454,-6.1121228942163945,0.2439178065050001,163.41412686091996
1703143348468,-6.233273294216395,0.0678305065050001,164.65007186091995
1703143348482,-6.359026794216395,-0.1012204934949998,165.89380186091995
1703143348496,-6.488549294216395,-0.2578730934949998,167.14552986091996
1703143348510,-6.620730794216395,-0.3976653934949998,168.40331486091998
1703143348524,-6.754496994216395,-0.5177779934949999,169.66454586092
1703143348537,-6.889517594216395,-0.6159816734949999,170.92430086092
1703143348551,-7.024180494216395,-0.6915409434949998,172.17737086092
1703143348566,-7.156540794216395,-0.7322015234949999,173.42187686092
1703143348579,-7.283829994216395,-0.7110699034949999,174.66487286092
1703143348593,-7.402680794216395,-0.6220285834949999,175.91564786092002
1703143348607,-7.511523394216395,-0.4969965834949998,177.18050586092002
1703143348622,-7.611498334216395,-0.3690617834949998,178.45047486092002
1703143348635,-7.704638684216395,-0.2561858834949998,179.71951386092002
1703143348649,-7.791648714216395,-0.1632141134949998,180.98562486092
1703143348662,-7.870955674216395,-0.0809245834949998,182.24686786092
1703143348676,-7.940327594216395,-0.0002795834949998,183.50023786092
1703143348690,-7.9971425742163955,0.0833004965050001,184.74489086092
1703143348704,-8.040864504216396,0.1711890765050001,185.98006086092
1703143348719,-8.072561974216395,0.2682814165050001,187.20838786092003
1703143348733,-8.094440894216396,0.3866148165050002,188.43303586092003
1703143348746,-8.107543724216395,0.5372760165050001,189.65800486092
1703143348760,-8.113921123216395,0.7127061165050002,190.88585486092
1703143348774,-8.115115529216395,0.8952542165050001,192.11219486092
1703143348788,-8.113508312216394,1.0646832165050002,193.33352986092
1703143348803,-8.110796558216395,1.2076468165050005,194.54948586092
1703143348817,-8.107251583216394,1.3172126165050002,195.76069886092
1703143348830,-8.102957661216394,1.3905088465050002,196.96882686092
1703143348843,-8.097918718216393,1.4281710365050002,198.17597386092
1703143348857,-8.091845444216393,1.4326518625050002,199.38440786092
1703143348871,-8.084728743216393,1.406296602505,200.59592086092
1703143348886,-8.076509851216393,1.3533770525050002,201.81196786092
1703143348899,-8.067490357216393,1.2769017725050005,203.03247586092
1703143348913,-8.057883679216392,1.1792731425050005,204.25733986092
1703143348927,-8.047319249216391,1.0630617425050002,205.48587486092
1703143348941,-8.034088809216392,0.9339181425050002,206.71696886092
1703143348955,-8.015164939216392,0.7974587425050002,207.95132186092
1703143348969,-7.989873999216392,0.6596150425050001,209.19010586092
1703143348983,-7.957738879216392,0.5245741425050001,210.43453886092
1703143348996,-7.919160859216392,0.3954712425050001,211.68537786092
1703143349010,-7.875031059216392,0.2750023425050001,212.94224786092
1703143349024,-7.825242659216392,0.1654362425050001,214.20423786092
1703143349038,-7.770460179216392,0.0667809125050001,215.46983786092
1703143349052,-7.710751899216392,-0.0194292574949998,216.73793286092
1703143349065,-7.646103529216393,-0.0908140774949999,218.00709486092
1703143349079,-7.576687169216393,-0.1462604974949999,219.27485686092
1703143349093,-7.505065719216392,-0.1835981474949999,220.53948886092
1703143349107,-7.433539389216392,-0.1835034401349999,221.80299086092
1703143349123,-7.364020109216392,-0.1210791101349998,223.07164986092
1703143349136,-7.298887639216392,-0.0058901101349998,224.35517086092
1703143349150,-7.241300169216393,0.1284237898650001,225.64657586092
1703143349164,-7.193920299216392,0.2526747898650001,226.93287086092
1703143349177,-7.159183769216392,0.3485887398650001,228.20869286092
1703143349191,-7.138713069216393,0.4138668098650001,229.47138586092
1703143349205,-7.131505623216393,0.4632778098650001,230.72041286092
1703143349219,-7.138424977216393,0.5144093898650001,231.96064386092
1703143349233,-7.159225367216393,0.582135699865,233.19660986092
1703143349246,-7.192576567216393,0.676202629865,234.43221486092
1703143349260,-7.235591877216393,0.8025788298650001,235.66848686092
1703143349274,-7.285911627216393,0.957846629865,236.90393986092
1703143349288,-7.3428853172163935,1.131372129865,238.13672286092003
1703143349302,-7.4049718672163936,1.3111867298650002,239.36487186092003
1703143349316,-7.470314697216393,1.4880383298650002,240.58847086092004
1703143349329,-7.537984107216393,1.653890829865,241.80802486092003
1703143349343,-7.607638747216393,1.801889029865,243.02483086092
1703143349357,-7.679298087216393,1.924455129865,244.23872686092
1703143349371,-7.752435587216393,2.016502119865,245.44974686092
1703143349385,-7.827206427216393,2.073310309865,246.65822186092
1703143349399,-7.902016217216393,2.095236939865,247.86554086092
1703143349413,-7.975896207216393,2.086649018865,249.07437886092004
1703143349428,-8.048365517216393,2.049949458865,250.28706886092004
1703143349442,-8.119900077216393,1.985058288865,251.50483586092005
1703143349455,-8.192122627216392,1.895149648865,252.7282528609201
1703143349469,-8.268007077216392,1.7827515488649994,253.95805386092007
1703143349482,-8.349448777216391,1.6520946488649997,255.1951348609201
1703143349496,-8.436214367216392,1.5086786488649997,256.4401028609201
1703143349511,-8.528212047216392,1.3571890488649996,257.6934168609201
1703143349524,-8.626467907216393,1.2005861488649996,258.95578786092005
1703143349538,-8.732101607216393,1.0410924488649995,260.22671186092003
1703143349552,-8.847065507216392,0.8818333488649995,261.50530186092004
1703143349566,-8.972061907216393,0.7278409488649995,262.79148086092005
1703143349580,-9.106319207216393,0.5852113488649995,264.08453886092
1703143349594,-9.248712407216392,0.4587335488649995,265.38413986092
1703143349607,-9.397739507216391,0.3503987488649995,266.68874486092
1703143349622,-9.552175607216393,0.2600505388649995,267.99465086092
1703143349636,-9.709629407216394,0.1882208988649995,269.29719386092
1703143349650,-9.866158307216391,0.1450333588649995,270.59385286092
1703143349664,-10.017663307216392,0.1603059688649995,271.88890086092
1703143349678,-10.159547407216394,0.2434445288649995,273.19066086092
1703143349690,-10.290108007216396,0.3626603288649995,274.50221386092
1703143349704,-10.409220507216396,0.4837092288649995,275.81027786092
1703143349719,-10.519601107216394,0.5836430888649995,277.10801486092
1703143349733,-10.621924207216392,0.6534634588649995,278.39505786092
1703143349747,-10.716638727216392,0.7021164788649995,279.67102586091994
1703143349760,-10.802009397216391,0.7461968688649995,280.9385248609199
1703143349774,-10.874485867216393,0.8024817188649995,282.1995198609199
1703143349788,-10.932253927216394,0.8813246088649995,283.4566118609199
1703143349802,-10.977289467216394,0.9851157088649996,284.7121068609199
1703143349817,-11.012583917216396,1.1152707088649996,285.9645238609199
1703143349830,-11.041321407216394,1.2666552088649996,287.2125218609199
1703143349843,-11.065350267216392,1.4327326088649996,288.4554288609199
1703143349857,-11.085248827216391,1.6047177088649995,289.69287086091987
1703143349871,-11.102027487216391,1.7730540088649995,290.92506586091986
1703143349886,-11.117329377216391,1.927045508865,292.1537788609199
1703143349899,-11.131912837216394,2.058286208865,293.3805778609199
1703143349912,-11.145662217216394,2.160405708865,294.6066658609199
1703143349927,-11.158379387216394,2.227384658865,295.8333408609199
1703143349941,-11.170662717216397,2.258606388865,297.06155886091994
1703143349954,-11.182880917216394,2.2542655698650003,298.29244286091995
1703143349968,-11.195659677216394,2.220233469865,299.52747686091993
1703143349983,-11.208873907216397,2.160732259865,300.76849486092
1703143349996,-11.221601657216397,2.078287219865,302.0157968609199
1703143350009,-11.231144566216395,1.974112819865,303.2689108609199
1703143350023,-11.234965827216396,1.849475319865,304.52723086092
1703143350038,-11.232694570216395,1.709485019865,305.79104786091995
1703143350053,-11.224824302216396,1.559734519865,307.06171686091994
1703143350067,-11.212173022216396,1.405769019865,308.3405898609199
1703143350080,-11.195068682216396,1.251194219865,309.6281058609199
1703143350094,-11.171759342216395,1.0982084198650002,310.9247158609199
1703143350107,-11.140203862216396,0.948611319865,312.22961686091986
1703143350121,-11.100461192216397,0.8044296198650002,313.54125886091987
1703143350136,-11.053769962216396,0.6697393198650001,314.85813086091986
1703143350149,-11.000674692216394,0.5480145198650002,316.17951886091987
1703143350163,-10.941558522216395,0.4398930198650002,317.5043288609199
1703143350177,-10.875916222216397,0.3456733698650002,318.8307688609199
1703143350191,-10.804013842216396,0.2654513898650001,320.15588386091986
1703143350205,-10.728862312216396,0.2088751298650001,321.4814778609199
1703143350218,-10.653328172216396,0.2052046858650001,322.81460786091986
1703143350232,-10.579383212216396,0.2562997358650002,324.1600128609199
1703143350247,-10.510312712216397,0.3316021158650002,325.5182228609199
1703143350260,-10.449230202216397,0.3973975558650002,326.8729378609199
1703143350274,-10.398455802216397,0.4341503258650002,328.2178508609199
1703143350289,-10.359836262216396,0.4359430918650002,329.5500808609199
1703143350303,-10.334805672216396,0.4199180218650002,330.8700988609199
1703143350316,-10.325802860216395,0.4096444718650002,332.1782528609199
1703143350330,-10.334896309216395,0.4271524118650002,333.47859986091987
1703143350343,-10.360081329216396,0.4874786418650002,334.77507686091985
1703143350358,-10.398735949216396,0.6007115418650002,336.07123386091985
1703143350374,-10.447041729216396,0.7594933418650002,337.3637298609199
1703143350386,-10.502342479216397,0.9478470418650002,338.64842686091987
1703143350399,-10.562281739216395,1.1475115418650002,339.92333386091985
1703143350413,-10.625602489216398,1.3456509418650002,341.18896786091983
1703143350428,-10.691832629216398,1.5321564418650002,342.4460638609198
1703143350441,-10.760639459216398,1.699476041865,343.6966968609198
1703143350456,-10.831824809216398,1.840232241865,344.9425378609198
1703143350469,-10.904828879216398,1.948730141865,346.1853748609198
1703143350483,-10.979444109216397,2.021360791865,347.42671886091983
1703143350496,-11.054402899216395,2.057221211865,348.66828786091986
1703143350510,-11.128406549216397,2.055037694865,349.91176186091985
1703143350525,-11.200567229216396,2.018962854865,351.15901886091984
1703143350538,-11.272049169216396,1.950510074865,352.41198686091985
1703143350553,-11.344827209216396,1.852436154865,353.6724458609199
1703143350566,-11.420320059216396,1.7283115548649997,354.9420498609199
1703143350581,-11.498716119216397,1.5851882548649996,356.2216328609199
1703143350593,-11.580014009216397,1.4286726548649995,357.51097586091987
1703143350607,-11.665126689216397,1.2643932548649994,358.81051286091986
1703143350621,-11.754886529216394,1.0985881548649994,360.12103086091986
1703143350636,-11.850902149216394,0.9368113548649994,361.4431038609199
1703143350650,-11.954159349216392,0.7828534548649995,362.7765878609199
1703143350663,-12.064061149216393,0.6393677548649994,364.1212938609198
1703143350678,-12.179567949216391,0.5089437548649994,365.4767078609198
1703143350691,-12.299641949216394,0.3927813548649994,366.84089486091983
1703143350704,-12.423301949216391,0.2908815548649994,368.21202086091984
1703143350718,-12.550840049216394,0.2042232148649994,369.5881388609199
1703143350733,-12.682132549216394,0.1330401048649994,370.9667828609199
1703143350747,-12.815978549216394,0.0765695748649994,372.3451988609199
1703143350760,-12.949712749216394,0.0452611648649994,373.7241738609199
1703143350774,-13.080455149216396,0.0679836448649994,375.1087978609199
1703143350788,-13.204115449216394,0.1483357148649994,376.5043868609199
1703143350803,-13.320364449216394,0.2495791148649994,377.9108558609199
1703143350816,-13.430233349216394,0.3437923148649994,379.3151288609199
1703143350830,-13.534138849216394,0.4180400748649994,380.7130698609199
1703143350844,-13.629617299216394,0.4748907648649994,382.1047488609199
1703143350858,-13.713551849216394,0.5315838248649994,383.4900668609199
1703143350872,-13.783988759216394,0.6032964048649995,384.86829386091983
1703143350886,-13.838278439216394,0.6995881248649994,386.2381248609198
1703143350900,-13.877406049216392,0.8191247248649994,387.6000438609198
1703143350914,-13.903755989216393,0.9637298248649996,388.9534828609198
1703143350927,-13.918987089216392,1.1377772248649995,390.2981148609198
1703143350941,-13.925290854216392,1.3370673248649996,391.63583986091976
1703143350955,-13.925220896986392,1.5477350248649997,392.9660058609198
1703143350969,-13.922868275986392,1.7517896248649998,394.2879648609198
1703143350983,-13.920874302986393,1.935286324865,395.60254086091976
1703143350997,-13.921746110286392,2.087846524865,396.9111158609198
1703143351011,-13.926150774286391,2.205276224865,398.2156878609198
1703143351025,-13.934276560286394,2.284910204865,399.5175098609198
1703143351038,-13.946079880286394,2.325861584865,400.8172488609198
1703143351052,-13.961397580286397,2.330199184865,402.1162438609198
1703143351067,-13.979735530286394,2.3011744748650003,403.4161738609198
1703143351080,-14.000196750286394,2.241503154865,404.7191998609198
1703143351093,-14.020931240286394,2.156893224865,406.0262468609198
1703143351108,-14.040375540286394,2.0516516248650003,407.3374498609198
1703143351121,-14.056984700286394,1.9300497248650004,408.65224886091977
1703143351136,-14.069343920286396,1.7954953248650003,409.97080886091976
1703143351151,-14.076483580286396,1.6523607248650003,411.2934468609197
1703143351163,-14.078263989286397,1.5032261248650003,412.6200968609197
1703143351177,-14.074614240286396,1.3483338248650003,413.9508098609197
1703143351191,-14.064998964286396,1.1882815248650005,415.2856098609197
1703143351205,-14.048669524286396,1.0270289248650002,416.6240518609197
1703143351219,-14.025150154286395,0.8700096248650002,417.96591786091966
1703143351233,-13.994147674286395,0.7220921248650002,419.3105168609197
1703143351247,-13.955856464286397,0.5853330248650002,420.65661086091967
1703143351261,-13.911147944286396,0.4637034248650001,422.0020648609197
1703143351275,-13.862292444286394,0.3641797048650002,423.34609486091966
1703143351289,-13.811583844286394,0.3084297148650001,424.6914348609197
1703143351303,-13.761011994286394,0.3246920348650001,426.0453158609197
1703143351316,-13.713097414286391,0.4149822348650001,427.4147038609197
1703143351330,-13.671284104286393,0.5380854348650002,428.7925138609197
1703143351343,-13.639096264286392,0.6594612348650002,430.1623428609197
1703143351358,-13.620084704286391,0.7570456548650002,431.51292486091967
1703143351371,-13.615593177286392,0.8301156348650002,432.8412278609197
1703143351385,-13.627212147286391,0.8978583148650001,434.1475288609197
1703143351400,-13.657046337286394,0.984928684865,435.4377008609197
1703143351413,-13.706997427286394,1.109126584865,436.7185608609197
1703143351427,-13.775189077286392,1.276713484865,437.9961778609197
1703143351442,-13.855128797286394,1.4817677848650002,439.2698028609197
1703143351456,-13.941904447286394,1.7106741848650002,440.5383768609197
1703143351469,-14.033072047286394,1.950060684865,441.8024408609197
1703143351483,-14.126763207286396,2.189517384865,443.0636498609197
1703143351497,-14.220568687286397,2.419991484865,444.3243258609197
1703143351511,-14.312536687286396,2.633159784865,445.5868758609197
1703143351525,-14.401041167286394,2.818398984865,446.8529878609197
1703143351539,-14.486388697286394,2.967599784865,448.1226978609197
1703143351552,-14.568888707286394,3.072718284865,449.39648286091966
1703143351566,-14.649623217286392,3.134188874865,450.6737378609197
1703143351580,-14.728934997286393,3.154412154865,451.9544858609197
1703143351594,-14.806762357286392,3.135964494865,453.2404378609197
1703143351608,-14.883381397286394,3.081405014865,454.5326408609197
1703143351622,-14.959348107286392,2.9911374148650003,455.8311408609197
1703143351635,-15.036953377286393,2.8641008148650005,457.1358178609197
1703143351649,-15.118902727286391,2.7056505148650003,458.4471098609197
1703143351663,-15.206719407286393,2.523597414865,459.76619386091966
1703143351677,-15.300496097286391,2.326216414865,461.0933578609197
1703143351692,-15.399907997286393,2.120020014865,462.4296428609196
1703143351705,-15.504683197286392,1.909891914865,463.7750848609196
1703143351719,-15.616008697286391,1.699675714865,465.1299408609196
1703143351732,-15.734680097286391,1.4951631148650002,466.4945138609196
1703143351746,-15.861523397286394,1.3038922148650005,467.8685078609196
1703143351760,-15.995367397286394,1.1328350148650004,469.2506768609196
1703143351775,-16.135168497286394,0.9875533148650004,470.63912486091954
1703143351789,-16.280021397286394,0.8718254148650004,472.0302948609195
1703143351803,-16.428685097286394,0.7817613548650004,473.41848186091954
1703143351816,-16.578770297286393,0.7198618048650004,474.79951886091953
1703143351830,-16.726307697286394,0.7106012038650004,476.1774618609196
1703143351844,-16.866408897286394,0.7700734638650004,477.5574938609195
1703143351858,-16.996308797286396,0.8655526838650004,478.94581786091953
1703143351871,-17.116195597286396,0.9663507838650004,480.3324828609195
1703143351886,-17.228109197286397,1.0597226938650004,481.71224986091954
1703143351899,-17.3325562972864,1.1469504938650004,483.0849638609195
1703143351913,-17.428287747286397,1.2455125938650005,484.4511248609195
1703143351929,-17.510619817286397,1.3674783938650004,485.8107238609195
1703143351942,-17.575674417286397,1.5141255938650005,487.1641368609195
1703143351955,-17.623975527286397,1.6788517938650005,488.5102788609194
1703143351969,-17.6582516472864,1.8609316938650005,489.84896486091947
1703143351983,-17.6802968972864,2.0645026938650006,491.1818718609194
1703143351997,-17.6913941572864,2.288298793865001,492.51084786091945
1703143352011,-17.6936928062864,2.5178832938650006,493.8354708609194
1703143352025,-17.6883693292864,2.735729593865001,495.1534508609194
1703143352039,-17.6779194892864,2.9262888938650007,496.4651728609194
1703143352053,-17.6637241592864,3.078528493865001,497.7718348609194
1703143352066,-17.6471636792864,3.184376193865001,499.0754468609194
1703143352080,-17.6292236592864,3.2429725838650008,500.3781238609194
1703143352094,-17.6108330892864,3.2524099938650006,501.6807788609194
1703143352108,-17.592855249286398,3.2146387338650007,502.9851288609194
1703143352123,-17.575511209286397,3.134980563865001,504.2929688609194
1703143352137,-17.558343349286396,3.0249404638650006,505.6057228609194
1703143352150,-17.539929169286395,2.8927645638650006,506.9243998609194
1703143352164,-17.519289059286397,2.7430219638650004,508.24807586091936
1703143352177,-17.496332709286396,2.5764173638650005,509.5747948609194
1703143352191,-17.471522299286395,2.3949850638650005,510.9033158609194
1703143352205,-17.444373809286397,2.2043473638650006,512.2337848609194
1703143352219,-17.414062599286396,2.0131173638650006,513.5669878609194
1703143352233,-17.379503929286397,1.8296484638650008,514.9054308609194
1703143352246,-17.339671319286396,1.6596135638650007,516.2503318609195
1703143352260,-17.294353739286397,1.5057078638650008,517.6019198609195
1703143352274,-17.244700629286395,1.3645971638650007,518.9579788609194
1703143352288,-17.190567569286394,1.2344510638650008,520.3159848609195
1703143352302,-17.132840859286393,1.1163318638650008,521.6725968609195
1703143352317,-17.07280372928639,1.0125320638650008,523.0251918609194
1703143352330,-17.013531019286393,0.9217645938650008,524.3701748609194
1703143352344,-16.958014329286392,0.8433996738650009,525.7060928609194
1703143352358,-16.908717159286393,0.798070343865001,527.0377068609193
1703143352372,-16.866778059286393,0.808190203865001,528.3708378609193
1703143352386,-16.833750769286393,0.8547105238650009,529.7132328609193
1703143352400,-16.811378619286394,0.9048107538650008,531.0547538609193
1703143352413,-16.800371579286395,0.9369272638650008,532.3867378609193
1703143352427,-16.800857014386395,0.9449609378650008,533.7081238609193
1703143352442,-16.813401834386394,0.9442423433650008,535.0195598609192
1703143352456,-16.837459624386394,0.9600743433650007,536.3249288609193
1703143352470,-16.874638994386395,1.0124327833650009,537.6301408609193
1703143352483,-16.924006544386394,1.1053217833650009,538.9395108609192
1703143352497,-16.983806654386395,1.2410182833650008,540.2544928609192
1703143352511,-17.052099064386397,1.4179397833650007,541.5739298609192
1703143352525,-17.128450534386396,1.6279314833650007,542.8967838609192
1703143352539,-17.211099844386396,1.8547431833650008,544.2208548609192
1703143352553,-17.298515924386397,2.0810589833650006,545.5451668609192
1703143352567,-17.389306914386395,2.2922640833650005,546.8698388609191
1703143352580,-17.482789704386395,2.4763817833650004,548.1949998609191
1703143352594,-17.578667094386393,2.6219304833650003,549.5204498609191
1703143352608,-17.676992134386392,2.7235343833650005,550.8462948609191
1703143352623,-17.77760873438639,2.7764357133650006,552.1731898609191
1703143352635,-17.87997693438639,2.7805069063650008,553.5015298609192
1703143352649,-17.98362223438639,2.7396775363650008,554.8329308609192
1703143352664,-18.08809733438639,2.6587934363650008,556.1695298609192
1703143352678,-18.19335253438639,2.545807236365001,557.5132138609192
1703143352692,-18.30006903438639,2.403365536365001,558.8654898609192
1703143352706,-18.41009853438639,2.237088736365001,560.2263608609192
1703143352720,-18.52617393438639,2.051937636365001,561.5960598609191
1703143352733,-18.64900973438639,1.8552366363650008,562.9742918609192
1703143352747,-18.77877343438639,1.6536858363650009,564.3607428609191
1703143352760,-18.914835634386392,1.453518836365001,565.7559988609191
1703143352774,-19.0562213343864,1.2598427363650009,567.1609718609192
1703143352790,-19.2034699343864,1.077081736365001,568.5764148609192
1703143352802,-19.3575401343864,0.9112540363650008,570.0019188609192
1703143352816,-19.517841534386395,0.7653809363650009,571.4357618609192
1703143352830,-19.6842544343864,0.6438142363650009,572.8770748609193
1703143352844,-19.856013534386395,0.5442368663650009,574.3228008609193
1703143352859,-20.032722534386394,0.4647277963650009,575.7695208609193
1703143352872,-20.212674534386394,0.4021177863650009,577.2118768609193
1703143352886,-20.3929934343864,0.3673593663650009,578.6505578609193
1703143352899,-20.5706603343864,0.3877603163650008,580.0920808609193
1703143352913,-20.74135173438639,0.4653201363650008,581.5445478609192
1703143352927,-20.9028545343864,0.5632712963650008,583.0068838609193
1703143352942,-21.0534211343864,0.6525411063650008,584.4628258609193
1703143352955,-21.1931094343864,0.7216921663650009,585.9062068609194
1703143352969,-21.321979734386392,0.7814909463650009,587.3369508609194
1703143352983,-21.43745923438639,0.8513711463650009,588.7538308609194
1703143352997,-21.53458523438639,0.9477123463650008,590.1570528609194
1703143353011,-21.61200942438639,1.0739320463650008,591.5479738609195
1703143353025,-21.672284524386388,1.2274538463650009,592.9276518609195
1703143353039,-21.719444244386388,1.4115230463650008,594.2957988609195
1703143353053,-21.757849814386383,1.6281015463650008,595.6528598609195
1703143353066,-21.791778934386382,1.8649393463650008,597.0016358609196
1703143353080,-21.823343054386385,2.1054057463650007,598.3412818609196
1703143353095,-21.854276334386384,2.3315664463650005,599.6716428609196
1703143353108,-21.886471614386384,2.5279992463650007,600.9943498609197
1703143353122,-21.921186324386383,2.686297646365001,602.3126208609197
1703143353136,-21.958897004386383,2.800722246365001,603.6291078609197
1703143353150,-21.999768684386385,2.8655190263650008,604.9458618609196
1703143353164,-22.04270001438638,2.881643306365001,606.2644968609196
1703143353178,-22.08659660438638,2.850117736365001,607.5859288609196
1703143353191,-22.13054440438638,2.775118736365001,608.9102178609196
1703143353205,-22.17374196438638,2.662881736365001,610.2383088609196
1703143353219,-22.21488953438638,2.519613036365001,611.5715198609196
1703143353233,-22.25277873438638,2.348119736365001,612.9104588609196
1703143353247,-22.28720787438638,2.152932536365001,614.2548248609196
1703143353261,-22.31768410438638,1.9386724363650008,615.6045818609196
1703143353274,-22.34234296438638,1.7111203363650012,616.9601418609195
1703143353289,-22.36040595438638,1.4781814363650012,618.3215038609195
1703143353303,-22.37037652638638,1.2485253363650013,619.6894568609196
1703143353317,-22.37207176438638,1.0307021363650013,621.0644188609195
1703143353331,-22.36505791838638,0.8322890363650013,622.4467798609195
1703143353344,-22.34879103838638,0.6584018363650013,623.8361338609195
1703143353358,-22.32276548838638,0.5118777363650013,625.2316408609195
1703143353372,-22.28654616838638,0.3971222363650013,626.6323308609195
1703143353386,-22.24281565838638,0.3150478663650013,628.0356978609195
1703143353400,-22.19501730838638,0.2686787063650013,629.4409348609196
1703143353415,-22.14708149838638,0.2820399863650012,630.8534568609196
1703143353427,-22.102000128386383,0.3704642963650013,632.2809108609196
1703143353441,-22.062328118386382,0.5069528963650013,633.7297828609196
1703143353455,-22.02951528838638,0.6477681963650013,635.1865358609197
1703143353470,-22.007183978386383,0.7673117963650012,636.6357358609197
1703143353484,-21.997851478386384,0.8555810663650012,638.0738178609197
1703143353497,-22.004046964386383,0.9224180963650012,639.4982938609197
1703143353511,-22.028204784386386,0.9888162963650012,640.9065228609197
1703143353524,-22.072694404386382,1.0712872063650012,642.3027468609197
1703143353538,-22.135728904386383,1.181609006365001,643.6907758609196
1703143353552,-22.212107844386384,1.331657006365001,645.0757078609197
1703143353567,-22.294932834386383,1.523957406365001,646.4573578609197
1703143353580,-22.380726654386383,1.7479831063650009,647.8344458609197
1703143353594,-22.46881632438638,1.9854134063650009,649.2038158609197
1703143353608,-22.55861279438638,2.2186017063650008,650.5630308609196
1703143353622,-22.64947673438638,2.4340887063650007,651.9138138609196
1703143353635,-22.74109639438638,2.622608006365001,653.2588248609196
1703143353650,-22.83381589438638,2.7754662063650004,654.6007558609197
1703143353664,-22.92865087438638,2.8882291063650003,655.9417968609197
1703143353677,-23.025752384386383,2.9561342563650004,657.2835358609196
1703143353691,-23.124641664386385,2.9768383063650004,658.6266688609196
1703143353704,-23.225243864386385,2.9505615363650004,659.9722308609196
1703143353719,-23.327525764386387,2.8812473063650006,661.3216108609196
1703143353732,-23.432784764386387,2.772573506365001,662.6773768609196
1703143353746,-23.541526564386388,2.6328561063650007,664.0417278609197
1703143353761,-23.653727664386388,2.4685864063650005,665.4163868609196
1703143353774,-23.76985606438639,2.2851112063650003,666.8022028609196
1703143353789,-23.890707064386387,2.0873685063650003,668.1997058609196
1703143353803,-24.017588464386385,1.8842652063650005,669.6077658609196
1703143353816,-24.151209464386387,1.6828869063650005,671.0264008609196
1703143353829,-24.292091364386387,1.4885770063650003,672.4560568609196
1703143353843,-24.44022226438639,1.3049654063650002,673.8957058609196
1703143353858,-24.59503686438639,1.134640306365,675.3433948609196
1703143353871,-24.75474806438639,0.9806680063650002,676.7957658609196
1703143353885,-24.91675686438639,0.8433140063650002,678.2484618609195
1703143353898,-25.07941886438639,0.7231809063650002,679.6970458609195
1703143353912,-25.23954846438639,0.6194975063650002,681.1367328609196
1703143353928,-25.39325556438639,0.5411516663650002,682.5661438609195
1703143353942,-25.53701756438639,0.5178782563650002,683.9921778609195
1703143353956,-25.66830366438639,0.5526419363650001,685.4240538609195
1703143353968,-25.78818536438639,0.6155749563650001,686.8655728609194
1703143353982,-25.89813596438639,0.6795551163650001,688.3027278609194
1703143353996,-26.000410564386392,0.7352855363650002,689.7357628609194
1703143354011,-26.09549167438639,0.7917134663650002,691.1664338609194
1703143354024,-26.18215781438639,0.8625277363650001,692.5912378609194
1703143354038,-26.25850974438639,0.952731076365,694.0108668609194
1703143354052,-26.32237953438639,1.064007876365,695.4238518609194
1703143354066,-26.37368622438639,1.198803076365,696.8289728609194
1703143354080,-26.41323107438639,1.362913976365,698.2276768609194
1703143354094,-26.44194739438639,1.562433876365,699.6219038609194
1703143354108,-26.46076145438639,1.790703976365,701.0157408609193
1703143354122,-26.47038749238639,2.029696576365,702.4074008609193
1703143354136,-26.47249782138639,2.257009376365,703.7954038609194
1703143354150,-26.46964450638639,2.457134176365,705.1802118609194
1703143354163,-26.46325907938639,2.620056076365,706.5625168609193
1703143354177,-26.45478668938639,2.737190176365,707.9434198609193
1703143354191,-26.44517160738639,2.806865936365,709.3238968609194
1703143354205,-26.43580062838639,2.827032876365,710.7040428609193
1703143354219,-26.427558516386387,2.800075266365,712.0846338609193
1703143354232,-26.420790274386388,2.730709666365,713.4660088609194
1703143354247,-26.414093692386388,2.629020666365,714.8496708609193
1703143354260,-26.406403612386388,2.502534766365,716.2372428609193
1703143354274,-26.39705793238639,2.355397366365,717.6287398609193
1703143354289,-26.385257502386388,2.189478466365,719.0225988609193
1703143354302,-26.370158002386383,2.0065666663650004,720.4176248609193
1703143354316,-26.350968782386385,1.8123904663650003,721.8130778609193
1703143354330,-26.326273012386384,1.6127885663650003,723.2101438609193
1703143354344,-26.294190362386384,1.4136546663650005,724.6097088609193
1703143354357,-26.253240892386383,1.2195536663650002,726.0119948609193
1703143354371,-26.202663712386386,1.0334296663650002,727.4169388609193
1703143354385,-26.14303420238638,0.8572320663650002,728.8236098609193
1703143354399,-26.074760452386386,0.6927223663650002,730.2303258609193
1703143354413,-26.000273982386386,0.5411463663650002,731.6336788609193
1703143354427,-25.922766492386383,0.4045241663650002,733.0286958609194
1703143354441,-25.846312942386383,0.2860949663650002,734.4146868609193
1703143354455,-25.774258232386384,0.2184621663650002,735.8003738609193
1703143354468,-25.706247112386382,0.2246926063650002,737.1950798609193
1703143354482,-25.64267704238638,0.2701973563650002,738.6080138609193
1703143354497,-25.58485866238638,0.3139865063650002,740.0220288609192
1703143354510,-25.53316741238638,0.3375534063650002,741.4291138609193
1703143354524,-25.48846483238638,0.3419557683650002,742.8311758609193
1703143354538,-25.45132496238638,0.3463773413650002,744.2249298609192
1703143354552,-25.42520278238638,0.3739615013650002,745.6129918609192
1703143354565,-25.41288634238638,0.4354141413650002,746.9971498609192
1703143354581,-25.415363850386377,0.5331444513650002,748.3796548609192
1703143354593,-25.432568970386377,0.6692847513650002,749.7609988609192
1703143354607,-25.462364350386377,0.8499632513650002,751.1380258609192
1703143354622,-25.500586980386377,1.065596151365,752.5113158609192
1703143354635,-25.54419214038637,1.298425551365,753.8773858609193
1703143354649,-25.591718190386374,1.527364551365,755.2331928609193
1703143354663,-25.64348304038637,1.736691251365,756.5778008609193
1703143354677,-25.70001356038637,1.915846451365,757.9113338609193
1703143354692,-25.76110075038637,2.0572059513650003,759.2351788609193
1703143354705,-25.82628648038637,2.161045951365,760.5531308609193
1703143354718,-25.89439646038637,2.2231941613650004,761.8674008609192
1703143354733,-25.96344135038637,2.245341181365,763.1810248609193
1703143354746,-26.031781510386374,2.227348831365,764.4960208609192
1703143354760,-26.099514720386374,2.167079621365,765.8143098609193
1703143354774,-26.16742686038637,2.0684347513650003,767.1379128609193
1703143354789,-26.237483390386373,1.9359585513650004,768.4681278609193
1703143354802,-26.311335490386373,1.7746793513650003,769.8071668609192
1703143354817,-26.39064823038637,1.5922265513650002,771.1562398609192
1703143354830,-26.47694099038637,1.3955872513650005,772.5160738609192
1703143354844,-26.57097285038637,1.1902783513650004,773.8874078609192
1703143354858,-26.67233045038637,0.9811465513650004,775.2709358609192
1703143354872,-26.78123505038637,0.7751480513650004,776.6671268609192
1703143354886,-26.898305650386373,0.5821937513650004,778.0760238609192
1703143354899,-27.023830450386374,0.4060217513650004,779.4957898609192
1703143354913,-27.15893005038637,0.2460377513650004,780.9242208609193
1703143354927,-27.30335005038637,0.1016850513650004,782.3575658609193
1703143354940,-27.455601850386373,-0.0248168486349995,783.7934388609193
1703143354955,-27.61358255038637,-0.1269671486349995,785.2297618609193
1703143354969,-27.773711550386373,-0.1780608986349995,786.6710938609193
1703143354982,-27.932016350386373,-0.1476824586349995,788.1216568609193
1703143354996,-28.08491515038637,-0.0584854686349995,789.5878808609193
1703143355010,-28.23035865038637,0.0463810313650004,791.0554718609193
1703143355024,-28.36780415038637,0.1435953913650004,792.5128098609193
1703143355039,-28.49578005038637,0.2295617713650004,793.9601958609194
1703143355054,-28.61193965038637,0.3216620313650004,795.4003688609193
1703143355066,-28.71261485038637,0.4369077313650004,796.8341978609193
1703143355080,-28.79475473038637,0.5827595313650005,798.2641118609193
1703143355094,-28.85872445038637,0.7580969313650004,799.6895318609194
1703143355107,-28.907054650386367,0.9587166313650004,801.1076118609194
1703143355121,-28.94389637038637,1.1829263313650005,802.5172238609194
1703143355136,-28.97297569038637,1.4275751313650005,803.9188028609194
1703143355150,-28.99562562038637,1.6800062313650006,805.3118968609194
1703143355163,-29.01389013038637,1.9222721313650009,806.6947608609195
1703143355177,-29.02981763038637,2.1390598313650004,808.0669638609195
1703143355191,-29.045329200386373,2.319963131365,809.4294848609195
1703143355205,-29.061461990386373,2.458198331365,810.7843778609194
1703143355219,-29.07894176038637,2.547944391365,812.1330338609195
1703143355232,-29.097323270386376,2.589948921365,813.4772318609195
1703143355246,-29.11689084038637,2.585634426365,814.8181108609194
1703143355260,-29.137745250386374,2.537438916365,816.1578248609194
1703143355274,-29.15989789038637,2.4549525363649995,817.4990358609194
1703143355288,-29.183042440386377,2.3452989363649994,818.8441158609195
1703143355302,-29.20577650038637,2.2123247363649994,820.1948378609195
1703143355316,-29.225481470386377,2.0591860363649994,821.5504088609196
1703143355330,-29.240261050386376,1.888655736365,822.9106398609196
1703143355344,-29.249941221386376,1.7064293363649994,824.2753088609196
1703143355358,-29.25465739838637,1.5184012363649997,825.6461118609196
1703143355371,-29.254263281286374,1.3304632363649995,827.0241188609197
1703143355385,-29.24787411428637,1.1460851363649995,828.4094788609196
1703143355399,-29.23400874428637,0.9681667363649996,829.8018298609196
1703143355414,-29.212839384286376,0.7990353363649996,831.1998528609196
1703143355428,-29.18319207428637,0.6436534363649996,832.6026628609196
1703143355444,-29.145540894286373,0.5052665363649996,834.0080798609197
1703143355456,-29.10085012428637,0.3864983363649996,835.4139288609197
1703143355469,-29.051358834286376,0.2880537263649996,836.8171638609197
1703143355483,-29.00000487428637,0.2118366963649996,838.2164728609197
1703143355497,-28.951199314286374,0.1840089663649996,839.6205898609197
1703143355511,-28.90487603428637,0.2342596763649996,841.0412068609197
1703143355524,-28.859129604286373,0.3352859763649996,842.4874248609198
1703143355538,-28.814891254286373,0.4355065763649996,843.9428358609198
1703143355552,-28.77579305428637,0.5033128163649996,845.3918678609198
1703143355566,-28.74729908428637,0.5230065363649996,846.8351658609198
1703143355580,-28.73476944428637,0.5096167363649996,848.2726418609197
1703143355594,-28.74188587028637,0.4935463863649996,849.7045608609197
1703143355607,-28.76847687028637,0.5020807283649996,851.1345858609197
1703143355622,-28.81074712028637,0.5547846383649996,852.5672078609198
1703143355635,-28.867266110286373,0.6637427383649996,854.0054528609198
1703143355649,-28.93693655028637,0.8199503383649996,855.4417518609198
1703143355664,-29.019509390286373,1.0070588383649997,856.8664598609198
1703143355677,-29.11430067028637,1.2117042383649996,858.2734628609198
1703143355691,-29.22019797028637,1.4257792383649996,859.6614198609199
1703143355704,-29.33448877028637,1.6427492383649995,861.0337158609199
1703143355719,-29.45487917028637,1.855060838365,862.3932918609198
1703143355732,-29.580447170286373,2.052824638365,863.7419718609198
1703143355747,-29.71025317028637,2.224694038365,865.0798968609198
1703143355760,-29.84362787028637,2.3592286383649994,866.4061988609199
1703143355774,-29.979574470286373,2.451341058365,867.7225618609199
1703143355788,-30.117235370286373,2.497627568364999,869.0313098609199
1703143355802,-30.25532287028637,2.496796471965,870.3352568609199
1703143355816,-30.39360797028637,2.4549521119649995,871.6382928609199
1703143355831,-30.532410870286377,2.376469121965,872.9436768609199
1703143355844,-30.672539970286376,2.268781921965,874.2543438609199
1703143355857,-30.815087870286376,2.136043521965,875.5718638609198
1703143355872,-30.960568870286377,1.981298521965,876.8972588609198
1703143355886,-31.110551370286377,1.808143021965,878.2311518609198
1703143355899,-31.265890770286376,1.6224707219649996,879.5729458609198
1703143355913,-31.42689117028637,1.4309794219649996,880.9226978609198
1703143355927,-31.592751770286373,1.2430165219649996,882.2808048609198
1703143355941,-31.76292437028637,1.0681439219649995,883.6485478609198
1703143355955,-31.937213670286376,0.9159072219649996,885.0275118609198
1703143355968,-32.11501597028638,0.7917681219649995,886.4167988609198
1703143355983,-32.295815270286376,0.6959875619649994,887.8117668609198
1703143355997,-32.47753737028638,0.6222547419649994,889.2043948609197
1703143356010,-32.65731247028638,0.5608571519649994,890.5862388609197
1703143356024,-32.83278907028638,0.5319714519649994,891.9621568609197
1703143356037,-33.00273117028638,0.5646863119649994,893.3424868609196
1703143356052,-33.16396767028638,0.6325743819649994,894.7379388609196
1703143356066,-33.31754607028638,0.7017369819649993,896.1464568609196
1703143356079,-33.46632897028638,0.7694005019649993,897.5603288609195
1703143356094,-33.61216197028639,0.8567132119649993,898.9826938609195
1703143356108,-33.75243247028639,0.9778251119649992,900.4111898609195
1703143356121,-33.883116170286385,1.1315408119649992,901.8405648609196
1703143356136,-34.002541670286384,1.3043525119649992,903.2621118609196
1703143356150,-34.11058747028638,1.4811550119649992,904.6707118609196
1703143356163,-34.20817662028638,1.6594642119649992,906.0692848609197
1703143356176,-34.29466975028638,1.8528034119649992,907.4602778609196
1703143356191,-34.36939097028638,2.073587011964999,908.8454148609196
1703143356205,-34.43384204028638,2.308948511965,910.2265358609196
1703143356219,-34.48970368028638,2.536405111965,911.5987198609196
1703143356232,-34.53956988028638,2.735713511965,912.9605988609196
1703143356247,-34.58662246028638,2.8943391119649995,914.3137208609196
1703143356260,-34.63262783028638,3.006169711965,915.6600628609197
1703143356275,-34.678428980286384,3.073234321965,917.0017908609196
1703143356288,-34.724712380286384,3.096446701965,918.3403808609196
1703143356302,-34.772293200286384,3.076573151965,919.6774858609195
1703143356316,-34.82151318028638,3.014203831965,921.0142668609196
1703143356329,-34.87258228028638,2.915263161965,922.3522668609196
1703143356343,-34.92523920028638,2.7840484619649994,923.6926438609196
1703143356358,-34.97808109028638,2.6244249619649995,925.0365418609194
1703143356372,-35.02875767028638,2.442251561965,926.3848208609196
1703143356386,-35.07592843028638,2.244304761965,927.7381408609195
1703143356399,-35.11902100028638,2.0370153619649995,929.0969358609196
1703143356413,-35.15768849028638,1.826776161965,930.4622078609196
1703143356427,-35.191680710286384,1.6196727619649995,931.8345198609196
1703143356441,-35.220163620286385,1.4220518619649996,933.2141448609196
1703143356456,-35.241819540286386,1.2383052619649997,934.6000288609196
1703143356469,-35.255029940286384,1.0723053619649994,935.9907358609196
1703143356483,-35.258700398286386,0.9253955619649994,937.3837348609196
1703143356497,-35.253233162286385,0.7991279619649994,938.7766968609196
1703143356510,-35.24038087228639,0.6961923619649993,940.1673658609196
1703143356525,-35.223362002286386,0.6168050819649993,941.5529808609195
1703143356538,-35.20779449228639,0.5658507719649992,942.9341508609195
1703143356552,-35.19937611128639,0.5711447019649992,944.3191298609196
1703143356566,-35.20018876848639,0.6354137119649992,945.7135528609195
1703143356580,-35.21221656848639,0.7240290619649992,947.1204868609196
1703143356594,-35.23437062848639,0.8042729519649991,948.5224928609196
1703143356609,-35.26455052848639,0.8585657119649992,949.9154708609196
1703143356623,-35.30250549848639,0.8880448019649992,951.2981338609196
1703143356635,-35.34905737848639,0.9116636919649992,952.6684358609195
1703143356649,-35.40823404848639,0.9471605019649992,954.0270298609196
1703143356663,-35.485798128486394,1.0060572719649992,955.3753828609196
1703143356677,-35.5816245584864,1.0951323719649992,956.7182788609196
1703143356691,-35.692227558486394,1.2258362719649991,958.0580088609196
1703143356705,-35.81283755848639,1.4057694719649994,959.3973568609196
1703143356719,-35.93893565848639,1.6195558719649994,960.7379058609196
1703143356733,-36.06635545848639,1.846447871965,962.0735598609195
1703143356747,-36.19243815848639,2.0668863719649995,963.4017018609196
1703143356761,-36.31527745848639,2.268643871965,964.7228488609196
1703143356774,-36.4333845584864,2.4449488719649994,966.0378078609197
1703143356789,-36.54714315848639,2.590919571965,967.3476778609196
1703143356802,-36.65786105848639,2.7012295719649995,968.6540728609197
1703143356816,-36.76753845848639,2.7748883719649995,969.9591248609196
1703143356830,-36.87658315848639,2.8109079019649994,971.2653768609196
1703143356844,-36.98515085848639,2.8072813969649992,972.5753448609196
1703143356858,-37.09328105848639,2.765925676965,973.8904628609196
1703143356871,-37.20253825848639,2.688102126964999,975.2114818609195
1703143356886,-37.31560445848639,2.575789226964999,976.5391648609196
1703143356899,-37.43423575848639,2.431244126964999,977.8744048609196
1703143356913,-37.55833585848639,2.261041226964999,979.2178388609196
1703143356927,-37.68871935848639,2.071785626964999,980.5705108609196
1703143356941,-37.82716765848639,1.8714746269649989,981.9324398609195
1703143356955,-37.97656155848639,1.668543726964999,983.3025918609196
1703143356968,-38.13998705848639,1.470273626964999,984.6808808609196
1703143356983,-38.31689305848639,1.282757726964999,986.0657988609196
1703143357001,-38.50697445848639,1.111833826964999,987.4554788609196
1703143357010,-38.70766445848639,0.960357126964999,988.8480398609196
1703143357025,-38.91693045848639,0.831659826964999,990.2416288609196
1703143357038,-39.13302195848639,0.731556526964999,991.6335408609197
1703143357052,-39.35295215848639,0.679135986964999,993.0248698609196
1703143357066,-39.57243205848639,0.702883086964999,994.4207898609196
1703143357080,-39.7859757584864,0.795780106964999,995.8294838609196
1703143357094,-39.99043455848639,0.9125368069649992,997.2433568609196
1703143357107,-40.18434385848639,1.0279051069649991,998.6518548609196
1703143357122,-40.36730065848639,1.1405565069649992,1000.0549258609196
1703143357136,-40.53653685848639,1.2661356069649992,1001.4545268609196
1703143357150,-40.6915994584864,1.4176221069649992,1002.8523328609195
1703143357163,-40.8325729584864,1.6023400069649991,1004.2487938609196
1703143357177,-40.9627115584864,1.813533806964999,1005.6399718609196
1703143357191,-41.0818091584864,2.040538906965,1007.0217078609196
1703143357205,-41.1871650584864,2.2798718069649992,1008.3921128609196
1703143357219,-41.2782114884864,2.528784706965,1009.7531728609196
1703143357233,-41.3575206384864,2.779293006965,1011.1067378609196
1703143357246,-41.4277742184864,3.0185061069649994,1012.4531718609196
1703143357261,-41.4911904584864,3.231054406965,1013.7924968609196
1703143357275,-41.5490028784864,3.405388406965,1015.1260918609196
1703143357288,-41.6027194184864,3.5327860069649994,1016.4552408609196
1703143357303,-41.6522975884864,3.606179056965,1017.7813488609196
1703143357316,-41.6980432484864,3.6268701969649992,1019.1069708609195
1703143357330,-41.7400595784864,3.597128566964999,1020.4344958609196
1703143357344,-41.7797636584864,3.521376616964999,1021.7659478609196
1703143357358,-41.8194291684864,3.404739316965,1023.1032148609196
1703143357372,-41.8597859984864,3.256058816964999,1024.4462928609196
1703143357386,-41.8990489684864,3.081784316964999,1025.7942958609196
1703143357399,-41.9341798584864,2.887108716964999,1027.1463638609196
1703143357414,-41.9627790784864,2.675376116964999,1028.5022678609196
1703143357427,-41.9834853284864,2.449793016964999,1029.8623608609196
1703143357441,-41.9957553684864,2.217098716964999,1031.2277628609197
1703143357455,-41.9974394824864,1.9852796169649989,1032.6009268609196
1703143357469,-41.9867489324864,1.7629319169649988,1033.9837408609196
1703143357483,-41.9618777924864,1.5561819169649989,1035.3775598609195
1703143357496,-41.9222695924864,1.368189216964999,1036.7818078609196
1703143357511,-41.8689847424864,1.199295116964999,1038.1945968609195
1703143357525,-41.8037582924864,1.051027516964999,1039.6139068609195
1703143357539,-41.7292251024864,0.923878816964999,1041.0375708609197
1703143357553,-41.6469375224864,0.817424216964999,1042.4617608609194
1703143357566,-41.5601214824864,0.729607496964999,1043.881869860919
1703143357581,-41.4728761024864,0.679198546964999,1045.3020428609193
1703143357594,-41.3883179224864,0.701246016964999,1046.7307958609192
1703143357608,-41.3069053624864,0.7768584669649989,1048.178785860919
1703143357624,-41.22892527248641,0.858748596964999,1049.636659860919
1703143357636,-41.1533704224864,0.9165710869649988,1051.087076860919
1703143357649,-41.0817788024864,0.9374266869649988,1052.5304318609192
1703143357663,-41.0176991724864,0.9334732259649988,1053.9641418609192
1703143357677,-40.9651055124864,0.9288825409649988,1055.3848528609192
1703143357692,-40.9283647524864,0.9453564509649988,1056.7954268609192
1703143357705,-40.9050622124864,0.9971142109649987,1058.1981648609192
1703143357719,-40.8900182824864,1.0983537109649988,1059.5981478609192
1703143357732,-40.8797348024864,1.261107410964999,1060.998718860919
1703143357746,-40.872644286486405,1.484800610964999,1062.4000968609191
1703143357760,-40.86756658948641,1.743546110964999,1063.7983848609192
1703143357775,-40.86401960248641,2.012187310964999,1065.1896288609191
1703143357789,-40.86178969548641,2.271663610964999,1066.573834860919
1703143357802,-40.8611901733864,2.5087131109649987,1067.952458860919
1703143357816,-40.86287686238641,2.714064710964999,1069.326974860919
1703143357830,-40.8674823193864,2.878702110964999,1070.699648860919
1703143357844,-40.87512881638641,2.998990110964999,1072.0727678609192
1703143357859,-40.88374834138641,3.070646100964999,1073.448476860919
1703143357872,-40.890909269386405,3.094531990964999,1074.828282860919
1703143357886,-40.8950897383864,3.070203030964999,1076.213642860919
1703143357899,-40.8973107193864,2.9986387609649987,1077.604715860919
1703143357913,-40.9005170063864,2.8821175609649985,1079.001697860919
1703143357927,-40.9080139593864,2.7237447609649985,1080.405074860919
1703143357941,-40.920941879386405,2.5326981609649986,1081.814807860919
1703143357955,-40.9391651393864,2.3187846609649987,1083.231389860919
1703143357969,-40.962441819386406,2.0915647609649985,1084.654894860919
1703143357983,-40.99305841938641,1.8588043609649985,1086.086895860919
1703143357996,-41.033264859386406,1.6273039609649984,1087.5275018609188
1703143358011,-41.08446939938641,1.4019824609649985,1088.9762618609188
1703143358024,-41.14548283938641,1.1861714609649985,1090.4308198609187
1703143358038,-41.21428081938641,0.9825179609649984,1091.8885588609187
1703143358052,-41.28969489938641,0.7964437609649986,1093.3460948609186
1703143358066,-41.36980893938641,0.6299663609649986,1094.799954860919
1703143358080,-41.45297420938641,0.4895470609649985,1096.2474948609186
1703143358094,-41.53633054938641,0.4109682709649985,1097.6960758609189
1703143358108,-41.61469075938641,0.4195723529649985,1099.1530298609189
1703143358122,-41.684058989386415,0.4732663429649986,1100.6225058609186
1703143358135,-41.74577995938642,0.5232581629649986,1102.0832348609183
1703143358149,-41.80068783938642,0.5495935629649986,1103.5238138609186
1703143358163,-41.84628184938642,0.5510635719649987,1104.949311860919
1703143358177,-41.88118595938642,0.5548166729649987,1106.3614598609186
1703143358191,-41.90523013938642,0.5878346929649987,1107.7618468609185
1703143358205,-41.91797728938642,0.6703584929649987,1109.1545728609185
1703143358219,-41.91930619738642,0.8024641929649987,1110.5408388609185
1703143358232,-41.90992086138642,0.9750944929649988,1111.9161838609184
1703143358247,-41.89216004138642,1.1842111929649988,1113.2777598609184
1703143358260,-41.866573891386416,1.4262867929649987,1114.6251518609183
1703143358274,-41.83228423138642,1.686352492964999,1115.9601538609184
1703143358288,-41.789821271386415,1.9463170929649989,1117.2838598609185
1703143358302,-41.74096154138642,2.1902304929649987,1118.5980958609182
1703143358316,-41.687439951386416,2.4041273929649987,1119.9056298609182
1703143358330,-41.63042487138642,2.5802973929649986,1121.2102978609182
1703143358343,-41.570619051386416,2.7133883929649985,1122.514324860918
1703143358357,-41.50825126138641,2.799899472964998,1123.819515860918
1703143358371,-41.44410420138641,2.8375419829649986,1125.128110860918
1703143358386,-41.37913244138641,2.825151672964999,1126.442586860918
1703143358400,-41.31542246138641,2.767276872964999,1127.764077860918
1703143358413,-41.25381891138641,2.6710426729649988,1129.0940448609178
1703143358427,-41.19402350138641,2.5426605729649987,1130.432112860918
1703143358441,-41.13277437138641,2.3880192729649985,1131.777002860918
1703143358455,-41.06674648138641,2.2116022729649987,1133.128842860918
1703143358469,-40.99489427138641,2.0216810729649985,1134.487059860918
1703143358484,-40.91688927138641,1.8249491729649985,1135.851678860918
1703143358496,-40.83065904138641,1.6279684729649984,1137.222632860918
1703143358510,-40.73199070138641,1.4366643729649984,1138.600539860918
1703143358524,-40.61849320138641,1.2565693729649985,1139.985646860918
1703143358538,-40.49262980138641,1.0897979729649985,1141.376265860918
1703143358552,-40.3583207013864,0.9374172729649982,1142.770045860918
1703143358566,-40.2175240013864,0.8003212729649982,1144.163720860918
1703143358580,-40.0716479013864,0.6767259729649983,1145.552530860918
1703143358594,-39.9251245013864,0.5668585729649982,1146.931534860918
1703143358608,-39.7849972013864,0.4937445829649982,1148.305552860918
1703143358622,-39.6566379013864,0.5015542129649981,1149.682056860918
1703143358637,-39.5419721013864,0.5832939629649981,1151.075373860918
1703143358649,-39.4393876013864,0.6913229629649982,1152.478057860918
1703143358663,-39.3460188613864,0.7897968329649981,1153.871720860918
1703143358677,-39.2616076313864,0.8610818829649981,1155.251527860918
1703143358691,-39.1880116113864,0.910312272964998,1156.616249860918
1703143358705,-39.1296918313864,0.958289332964998,1157.960219860918
1703143358719,-39.0931056713864,1.0258343629649982,1159.289140860918
1703143358733,-39.082713391386406,1.1276594629649983,1160.609262860918
1703143358747,-39.09687981138641,1.2764453629649983,1161.927939860918
1703143358760,-39.12867291138641,1.4818081629649984,1163.2471988609182
1703143358774,-39.16989538138641,1.7299108629649984,1164.5657618609182
1703143358791,-39.21730652138641,1.9976732629649985,1165.8784998609185
1703143358803,-39.268637741386414,2.2630869629649983,1167.1820718609183
1703143358816,-39.32080183138641,2.5101951629649983,1168.4779718609184
1703143358830,-39.37090282138641,2.7294373629649984,1169.7685038609184
1703143358844,-39.41721071138641,2.914093162964998,1171.0563078609184
1703143358858,-39.45925872138641,3.056521062964998,1172.3438448609184
1703143358872,-39.496819791386415,3.154233282964998,1173.6332728609184
1703143358886,-39.531622741386414,3.204267682964998,1174.9257378609184
1703143358899,-39.56427196138642,3.205274817964998,1176.2226218609185
1703143358913,-39.59548117138642,3.157625987964998,1177.5252678609186
1703143358927,-39.62608153138642,3.0622756379649982,1178.8348058609186
1703143358941,-39.65667400138642,2.925361937964998,1180.1519168609186
1703143358955,-39.68784216138642,2.7504365379649984,1181.477906860919
1703143358969,-39.72024799138642,2.5465002379649984,1182.8123548609187
1703143358983,-39.75576640138642,2.3183489379649984,1184.1557898609187
1703143358997,-39.79692589138642,2.0747454379649986,1185.5079478609186
1703143359011,-39.84531189138642,1.8257561379649985,1186.8695228609186
1703143359025,-39.90076976138642,1.5806326379649984,1188.2413498609185
1703143359038,-39.96290570138642,1.3488437379649985,1189.6247258609185
1703143359052,-40.03262154138642,1.1396434379649985,1191.0208218609184
1703143359066,-40.110347521386416,0.9562810379649984,1192.4289858609184
1703143359080,-40.197505041386414,0.7991211379649984,1193.8472448609184
1703143359093,-40.29481020138641,0.6672631379649984,1195.2726618609183
1703143359109,-40.402451901386414,0.5607087379649984,1196.7012728609184
1703143359122,-40.51832770138641,0.4840129879649984,1198.1286008609184
1703143359136,-40.639872601386415,0.4593576979649984,1199.5562368609185
1703143359149,-40.763313001386415,0.5206366879649984,1200.9885488609182
1703143359164,-40.88290750138641,0.6488895879649984,1202.4338418609182
1703143359177,-40.99531290138641,0.7982058879649985,1203.881905860918
1703143359191,-41.09960360138641,0.9369364879649984,1205.320752860918
1703143359205,-41.19589055138641,1.0564176879649985,1206.751329860918
1703143359219,-41.280530751386415,1.1685462879649984,1208.173643860918
1703143359232,-41.350350141386414,1.2909704879649984,1209.587983860918
1703143359247,-41.401945661386414,1.4379141879649984,1210.995543860918
1703143359261,-41.435871501386416,1.6143239879649984,1212.395004860918
1703143359274,-41.452596151386416,1.8131622879649985,1213.784138860918
1703143359289,-41.45722029838642,2.025631587964998,1215.159686860918
1703143359302,-41.45438929738642,2.248495987964999,1216.5213368609182
1703143359316,-41.44875400238642,2.477548887964999,1217.870571860918
1703143359330,-41.44347633138642,2.704647387964999,1219.209356860918
1703143359345,-41.44069756638642,2.918734987964999,1220.538992860918
1703143359358,-41.44084421618642,3.109157587964999,1221.860958860918
1703143359371,-41.44452410618642,3.266534987964999,1223.176958860918
1703143359385,-41.45133613118642,3.3838130879649992,1224.489208860918
1703143359400,-41.460856047186425,3.454338177964999,1225.800133860918
1703143359413,-41.472706107186426,3.477926037964999,1227.1116778609178
1703143359427,-41.48627912718643,3.454971847964999,1228.4255148609177
1703143359441,-41.501050647186425,3.389092327964999,1229.7428388609178
1703143359456,-41.515983827186425,3.284567727964999,1231.0650628609178
1703143359469,-41.52983186718642,3.148206927964999,1232.393656860918
1703143359483,-41.54128247718642,2.985006627964999,1233.729417860918
1703143359497,-41.54935162018642,2.801352527964999,1235.0722568609178
1703143359510,-41.55267766318642,2.602954527964999,1236.4227498609175
1703143359524,-41.55023988118642,2.397027527964999,1237.7810208609178
1703143359538,-41.54156319618642,2.189168527964999,1239.1466728609178
1703143359552,-41.52624775618642,1.982984927964999,1240.5194428609177
1703143359566,-41.50312259618642,1.781629127964999,1241.8987838609178
1703143359580,-41.47125471618642,1.588701527964999,1243.283344860918
1703143359593,-41.429454426186425,1.408300827964999,1244.671807860918
1703143359607,-41.37780269618642,1.245248927964999,1246.062686860918
1703143359622,-41.31646698618642,1.103634927964999,1247.4538878609178
1703143359635,-41.24710939618642,0.9828898279649992,1248.8424218609175
1703143359649,-41.17237762618642,0.8814672279649991,1250.2237498609177
1703143359663,-41.097231136186416,0.8073752779649991,1251.5993778609177
1703143359677,-41.02557967618642,0.797493751964999,1252.9791038609176
1703143359690,-40.95873187618642,0.8425090419649991,1254.3700078609177
1703143359705,-40.90047968618642,0.9078070519649992,1255.7722798609177
1703143359719,-40.852274936186426,0.9620155119649992,1257.1674318609178
1703143359735,-40.815801776186426,0.9893835119649992,1258.5525178609178
1703143359746,-40.792747956186425,1.000156441964999,1259.9230158609178
1703143359760,-40.78175061618642,1.022632591964999,1261.2765278609177
1703143359774,-40.78577010718642,1.081452031964999,1262.6163088609176
1703143359789,-40.81023332718642,1.190154031964999,1263.9448738609176
1703143359802,-40.85523747718642,1.344799031964999,1265.2648998609177
1703143359816,-40.91682945718642,1.543995531964999,1266.5754308609178
1703143359830,-40.99116804718643,1.786224631964999,1267.8773518609178
1703143359843,-41.07537242718643,2.058949231964999,1269.1722658609178
1703143359857,-41.16742907718643,2.3438262319649987,1270.4602878609178
1703143359872,-41.26484045718643,2.620365231964999,1271.7426518609177
1703143359885,-41.36497645718643,2.8725252319649988,1273.0207458609175
1703143359899,-41.46583625718643,3.087182131964999,1274.2972158609175
1703143359913,-41.56703255718643,3.2545014319649987,1275.5747088609178
1703143359927,-41.66878205718643,3.3683163319649987,1276.855067860918
1703143359940,-41.76997615718643,3.4310478219649987,1278.1398558609178
1703143359955,-41.86971157718643,3.4456469719649987,1279.429952860918
1703143359969,-41.96747955718643,3.413623701964999,1280.7261068609178
1703143359983,-42.063393257186426,3.338369501964999,1282.0289318609175
1703143359997,-42.158194447186425,3.221237301964999,1283.3387748609175
1703143360010,-42.25278421718642,3.064206301964999,1284.6564388609177
1703143360024,-42.348783847186425,2.876310201964999,1285.9810988609177
1703143360038,-42.44830268718643,2.666365301964999,1287.3123968609175
1703143360052,-42.55325808718643,2.443750501964999,1288.6511148609177
1703143360066,-42.66459288718643,2.217555401964999,1289.9971338609178
1703143360081,-42.78287398718643,1.993827301964999,1291.3515508609178
1703143360094,-42.90888648718643,1.778239301964999,1292.7160168609178
1703143360107,-43.04289308718643,1.5771069019649988,1294.0903868609178
1703143360122,-43.184338687186425,1.3956421019649987,1295.4742038609177
1703143360135,-43.33209868718642,1.2328863019649987,1296.8656408609177
1703143360150,-43.485778787186426,1.0869912019649988,1298.2619248609176
1703143360163,-43.644739887186425,0.9565476019649988,1299.6601648609176
1703143360179,-43.80788138718643,0.8416846019649987,1301.0568258609176
1703143360191,-43.97216958718643,0.7463226119649987,1302.4481638609177
1703143360205,-44.13408078718643,0.6965836019649987,1303.8400618609176
1703143360219,-44.28782268718643,0.7313345719649987,1305.2375268609176
1703143360233,-44.42824238718643,0.8208698819649988,1306.6520548609176
1703143360247,-44.55410728718643,0.9191352419649989,1308.0719628609177
1703143360260,-44.66637148718643,1.0024788419649988,1309.4836288609176
1703143360275,-44.76746308718643,1.0690020819649988,1310.8893048609175
1703143360288,-44.85421266718643,1.1333237619649987,1312.2845688609175
1703143360302,-44.92360098718643,1.2136447219649988,1313.6658678609176
1703143360316,-44.974724037186434,1.319729121964999,1315.0296758609177
1703143360330,-45.01083030718643,1.453580321964999,1316.3724988609176
1703143360344,-45.03664303718643,1.610852321964999,1317.6939008609177
1703143360358,-45.05605890718643,1.7971971219649991,1318.9955028609177
1703143360371,-45.073358247186434,2.019362621964999,1320.2811468609175
1703143360385,-45.09187364718643,2.268747221964999,1321.5548808609178
1703143360399,-45.112786837186434,2.524722121964999,1322.815388860918
1703143360413,-45.13655395718644,2.766967121964999,1324.064147860918
1703143360427,-45.16434314718644,2.981164721964999,1325.304686860918
1703143360441,-45.19695353718644,3.161807821964999,1326.5414218609178
1703143360455,-45.23474917718644,3.304277321964999,1327.7779028609175
1703143360469,-45.27738405718644,3.403616031964999,1329.0174428609178
1703143360483,-45.32448025718644,3.460172701964999,1330.2611628609177
1703143360497,-45.37622975718644,3.474317481964999,1331.5100748609177
1703143360511,-45.432568887186434,3.448792091965,1332.7650018609177
1703143360524,-45.49250034718644,3.388453891965,1334.0264688609177
1703143360538,-45.55477697718644,3.298079381964999,1335.2948638609178
1703143360552,-45.61737744718644,3.182860181965,1336.5692758609175
1703143360566,-45.67868305718643,3.045917781964999,1337.8491558609178
1703143360580,-45.73845179718644,2.889952881965,1339.1336168609178
1703143360594,-45.796254777186434,2.717369781964999,1340.4218998609178
1703143360607,-45.85079078718643,2.532741881964999,1341.713769860918
1703143360622,-45.89967911718643,2.341636881964999,1343.0101038609178
1703143360635,-45.94056866718643,2.150701281964999,1344.3109978609175
1703143360649,-45.97240190718643,1.9640223819649991,1345.6156748609178
1703143360663,-45.99494442718643,1.782562481964999,1346.922460860918
1703143360676,-46.008792497186434,1.607275581964999,1348.230142860918
1703143360691,-46.01493010318644,1.4406483819649991,1349.537525860918
1703143360705,-46.01458310358644,1.2863011819649992,1350.842938860918
1703143360720,-46.00938628658644,1.1507265819649992,1352.143834860918
1703143360732,-46.00244834658644,1.0399104819649991,1353.439823860918
1703143360747,-45.99955862758644,0.9848962319649992,1354.739213860918
1703143360760,-46.00159947158644,1.0103285919649991,1356.047491860918
1703143360774,-46.00763356658644,1.0865297919649992,1357.377085860918
1703143360789,-46.01814664658644,1.1704520219649992,1358.711659860918
1703143360802,-46.03353371658644,1.2365499419649992,1360.038080860918
1703143360816,-46.05779425658644,1.2754843219649992,1361.351259860918
1703143360830,-46.09436088658644,1.3019952319649992,1362.644000860918
1703143360844,-46.14542462658644,1.3337827519649992,1363.911969860918
1703143360858,-46.21426073658644,1.3839918619649991,1365.1558268609178
1703143360872,-46.30114747658644,1.461644801964999,1366.3779248609178
1703143360886,-46.40482587658644,1.577907701964999,1367.5819808609178
1703143360900,-46.52117977658644,1.744068101964999,1368.773974860918
1703143360914,-46.64518157658644,1.961413301964999,1369.958343860918
1703143360927,-46.77335467658644,2.212537901964999,1371.135677860918
1703143360941,-46.90417167658644,2.475182801964999,1372.303197860918
1703143360955,-47.03635477658644,2.730604201964999,1373.461477860918
1703143360969,-47.16893497658644,2.965977701964999,1374.612245860918
1703143360984,-47.300541076586434,3.174280701964999,1375.758305860918
1703143360997,-47.43139657658644,3.349474001964999,1376.901648860918
1703143361011,-47.56190937658644,3.487126601964999,1378.044123860918
1703143361024,-47.69257807658644,3.583591171965,1379.187483860918
1703143361038,-47.82406687658644,3.639158981964999,1380.332861860918
1703143361053,-47.95698187658643,3.6539622019649993,1381.481376860918
1703143361066,-48.09209287658644,3.631904631965,1382.634060860918
1703143361080,-48.230779476586434,3.574964531965,1383.791738860918
1703143361094,-48.375291576586434,3.483107511965,1384.954186860918
1703143361108,-48.52745147658644,3.360702411965,1386.120314860918
1703143361122,-48.68820417658644,3.214538911965,1387.289462860918
1703143361137,-48.85920737658644,3.051915311965,1388.461329860918
1703143361150,-49.04171027658644,2.880350711965,1389.636333860918
1703143361163,-49.23663297658644,2.703526811965,1390.814673860918
1703143361177,-49.44279267658644,2.523195111965,1391.996305860918
1703143361191,-49.657671576586445,2.341013411965,1393.180165860918
1703143361205,-49.87977827658644,2.159996711965,1394.364640860918
1703143361220,-50.10787537658644,1.984687411965,1395.549276860918
1703143361233,-50.34105747658644,1.819129711965,1396.7342758609182
1703143361246,-50.579603776586445,1.667510411965,1397.9200218609185
1703143361260,-50.82361187658645,1.534371111965,1399.1051438609184
1703143361274,-51.07206637658645,1.418479711965,1400.2855308609185
1703143361289,-51.32400097658645,1.314897111965,1401.4536448609183
1703143361302,-51.57787627658645,1.237599851965,1402.6095898609185
1703143361316,-51.83262397658645,1.228222457965,1403.7594028609185
1703143361330,-52.08542517658645,1.295186217965,1404.9123108609183
1703143361344,-52.33461957658645,1.401485717965,1406.0740528609183
1703143361358,-52.58116127658645,1.509749517965,1407.2275928609183
1703143361372,-52.82938277658645,1.604782077965,1408.3726508609186
1703143361388,-53.082686476586446,1.691161057965,1409.510907860919
1703143361400,-53.34113817658645,1.782505947965,1410.6404288609187
1703143361414,-53.60416967658645,1.889024647965,1411.7599758609188
1703143361427,-53.867563276586445,2.0119887479650003,1412.8638818609188
1703143361441,-54.12848087658645,2.146095447965,1413.9475228609188
1703143361455,-54.388006276586445,2.288808947965,1415.0106878609188
1703143361469,-54.64988867658644,2.4513661479650004,1416.0554658609187
1703143361483,-54.91781437658644,2.6460475479650003,1417.0861688609186
1703143361496,-55.191531176586444,2.8611594479650004,1418.1074468609186
1703143361510,-55.47070087658644,3.0742636479650005,1419.1154668609186
1703143361525,-55.75530227658644,3.2660481479650003,1420.1096431609185
1703143361538,-56.04642357658644,3.4241715479650003,1421.0913240609184
1703143361551,-56.34492127658644,3.5422496479650003,1422.0623570609184
1703143361566,-56.65158617658644,3.616658607965,1423.0250984609183
1703143361579,-56.96640287658644,3.650291367965,1423.9820903609184
1703143361593,-57.28951447658644,3.647319832965001,1424.9353873609184
1703143361608,-57.62282017658644,3.6135256729650007,1425.8870600609184
1703143361621,-57.96682797658644,3.557713212965001,1426.8393558609184
1703143361634,-58.32182607658644,3.485110662965001,1427.7939695609184
1703143361649,-58.68717457658644,3.397201382965001,1428.7517971609184
1703143361663,-59.06109197658645,3.294261682965001,1429.7115867609184
1703143361677,-59.44365547658645,3.176274582965001,1430.6714487609183
1703143361690,-59.83464147658645,3.046143282965001,1431.6304662609184
1703143361705,-60.23375497658645,2.907424682965001,1432.5887816609184
1703143361719,-60.63993357658645,2.7629287829650013,1433.5466996609184
1703143361732,-61.051629276586446,2.614688682965001,1434.5050701609184
1703143361746,-61.46811807658645,2.464557382965001,1435.4646848609184
1703143361761,-61.88883017658645,2.314018582965001,1436.4265720609185
1703143361774,-62.31266637658645,2.165593282965001,1437.3917596609183
1703143361788,-62.738176476586446,2.020375782965001,1438.3604085609186
1703143361802,-63.16363737658644,1.877432982965001,1439.332773860919
1703143361816,-63.587504476586446,1.736496582965001,1440.3079172609189
1703143361830,-64.01127377658645,1.598380482965001,1441.2846856609187
1703143361843,-64.43775987658645,1.464968982965001,1442.2615052609187
1703143361857,-64.86806127658646,1.336519282965001,1443.2368196609186
1703143361870,-65.30179467658645,1.210660682965001,1444.2086535609187
1703143361885,-65.73857517658645,1.082928582965001,1445.1729058609187
1703143361899,-66.18110587658646,0.954280282965001,1446.1262959609187
1703143361913,-66.63494677658646,0.846071982965001,1447.0701108609187
1703143361927,-67.10610877658647,0.789996592965001,1448.0093811609188
1703143361941,-67.59722187658647,0.794248628965001,1448.9484274609188
1703143361955,-68.10503277658647,0.827736768965001,1449.8843466609187
1703143361968,-68.61994667658647,0.864084298965001,1450.8047479609188
1703143361984,-69.14085977658647,0.889964468965001,1451.7015390609188
1703143362000,-69.66742897658646,0.9058138289650012,1452.5686079609188
1703143362010,-70.20358837658647,0.9233232089650012,1453.4021692609188
1703143362024,-70.75430667658647,0.959551548965001,1454.2007180609187
1703143362038,-71.32434107658646,1.0254977989650012,1454.9649663609189
1703143362051,-71.91529897658647,1.1218542589650011,1455.6953938609186
1703143362065,-72.52348547658647,1.2418298589650012,1456.3916910609184
1703143362079,-73.14377827658647,1.3734653589650012,1457.0537976609185
1703143362093,-73.77313927658648,1.5094126589650012,1457.6820351609183
1703143362106,-74.40922057658648,1.6444728589650013,1458.2804514609186
1703143362121,-75.05252977658648,1.7741519589650012,1458.8503771609187
1703143362135,-75.70264137658648,1.894176658965001,1459.3951320609187
1703143362150,-76.35911307658648,1.9985053589650013,1459.917436460919
1703143362163,-77.02143367658648,2.081868178965001,1460.4205329609188
1703143362176,-77.68977877658648,2.140524178965001,1460.9062610609187
1703143362191,-78.36423447658647,2.173278788965001,1461.3774237609186
1703143362205,-79.04671497658647,2.178373382965001,1461.8347267609186
1703143362219,-79.73768467658647,2.157479672965001,1462.2804567609185
1703143362233,-80.43803837658646,2.112539542965001,1462.7163784609186
1703143362246,-81.14892977658646,2.046054662965001,1463.143981460919
1703143362260,-81.87187667658645,1.959822562965001,1463.5642945609186
1703143362274,-82.60682307658645,1.856646862965001,1463.977591860919
1703143362288,-83.35369727658644,1.736129562965001,1464.3821538609186
1703143362302,-84.11278817658645,1.5988216629650012,1464.7768147609186
1703143362316,-84.88439687658645,1.4468768629650013,1465.1620237609186
1703143362329,-85.66866867658645,1.2827740629650013,1465.5380640609187
1703143362343,-86.46657647658645,1.1079650629650013,1465.9039904609187
1703143362357,-87.27714007658645,0.9250100629650012,1466.2589497609188
1703143362371,-88.10079347658645,0.7364804629650014,1466.6011082609189
1703143362386,-88.93871657658644,0.5447633629650014,1466.9297981609188
1703143362399,-89.79126137658645,0.3531165629650014,1467.2465591609189
1703143362413,-90.65869977658645,0.1640035629650013,1467.5519442609188
1703143362426,-91.54132227658644,-0.0192775370349986,1467.8440451609188
1703143362440,-92.43794527658643,-0.1941667370349986,1468.1212499609187
1703143362455,-93.34897597658644,-0.3561908370349986,1468.3820720609187
1703143362468,-94.27415967658644,-0.5011556370349987,1468.6258713609188
1703143362482,-95.21270567658644,-0.6262356370349986,1468.8512689609188
1703143362496,-96.16178397658643,-0.7262796370349986,1469.0609848609188
1703143362510,-97.12161307658644,-0.7812263170349987,1469.2578400609189
1703143362524,-98.09322217658644,-0.7799372920349986,1469.443612060919
1703143362538,-99.07800177658643,-0.7347563620349986,1469.6198256609189
1703143362552,-100.06366347658644,-0.6733101020349986,1469.791700760919
1703143362566,-101.03822987658644,-0.6201556520349987,1469.9628728609189
1703143362579,-101.99263097658644,-0.5843367820349987,1470.133543560919
1703143362594,-102.92392787658645,-0.5607702520349988,1470.303323660919
1703143362607,-103.83600617658644,-0.5333298620349988,1470.470980960919
1703143362622,-104.73403237658644,-0.4877959820349987,1470.636478960919
1703143362635,-105.62085357658644,-0.4167135920349987,1470.799187360919
1703143362648,-106.49810117658645,-0.3201166520349987,1470.956779360919
1703143362662,-107.36367007658644,-0.1967796520349987,1471.104497060919
1703143362676,-108.21896937658644,-0.0501890520349987,1471.236460360919
1703143362691,-109.06648807658644,0.1124669479650012,1471.353598660919
1703143362705,-109.90763637658644,0.2818660479650012,1471.458494660919
1703143362719,-110.74334447658644,0.4466225479650012,1471.553299320919
1703143362732,-111.57397047658644,0.5969400479650012,1471.637578190919
1703143362746,-112.40063717658644,0.7252239479650012,1471.709294890919
1703143362760,-113.22473347658644,0.8247705079650012,1471.765464310919
1703143362775,-114.04757057658644,0.8937372879650012,1471.804883800919
1703143362789,-114.87088447658644,0.9310942379650012,1471.826655400919
1703143362802,-115.69602287658644,0.9380027949650012,1471.830496215919
1703143362816,-116.52453467658644,0.9165147949650012,1471.815759495919
1703143362830,-117.35873897658644,0.8688758749650012,1471.7817677159192
1703143362843,-118.19965087658645,0.8012374849650011,1471.729985225919
1703143362858,-119.04736417658644,0.7193739149650011,1471.6622739959191
1703143362872,-119.90229567658643,0.6273436249650012,1471.5799061559192
1703143362885,-120.76361347658644,0.5282067849650012,1471.4864258359191
1703143362899,-121.63123407658642,0.4223796849650011,1471.3833118359191
1703143362913,-122.50585197658644,0.3107399849650011,1471.2712237359192
1703143362927,-123.38907477658644,0.1964563849650011,1471.150519535919
1703143362941,-124.28215157658644,0.0817240849650011,1471.021899635919
1703143362955,-125.18503477658643,-0.0323202150349988,1470.885798135919
1703143362968,-126.09744917658644,-0.1458654150349988,1470.744337035919
1703143362983,-127.01910807658643,-0.2598127150349988,1470.599265335919
1703143362996,-127.94889927658645,-0.3745391150349988,1470.451660435919
1703143363010,-128.88610757658645,-0.4893982150349988,1470.302272235919
1703143363024,-129.82911387658643,-0.6021607150349988,1470.150588135919
1703143363038,-130.77666187658645,-0.7109228150349988,1469.9955223359188
1703143363052,-131.72812127658645,-0.8146725150349987,1469.8362013359188
1703143363065,-132.68279987658644,-0.9108945950349988,1469.6724614359186
1703143363079,-133.63832077658645,-0.9979025050349988,1469.5032512359187
1703143363093,-134.59105677658644,-1.0745753350349987,1469.3276415359187
1703143363107,-135.53871717658643,-1.1383010950349988,1469.144304135919
1703143363121,-136.48295677658643,-1.1756483950349987,1468.9498540359186
1703143363136,-137.42916217658643,-1.170802200034999,1468.7393332359186
1703143363149,-138.38017367658642,-1.1338433700349988,1468.510435435919
1703143363163,-139.3333242765864,-1.0823276300349989,1468.2685695359187
1703143363177,-140.28207917658642,-1.0303928100349988,1468.0200505359187
1703143363191,-141.22016077658645,-0.9840561000349988,1467.7660585359188
1703143363205,-142.14087797658644,-0.9420812500349988,1467.504566235919
1703143363218,-143.04120437658645,-0.8951270100349987,1467.227367935919
1703143363232,-143.92105297658645,-0.8304537200349987,1466.9269753359188
1703143363246,-144.77967437658646,-0.7400701900349987,1466.5954721359187
1703143363260,-145.61592827658646,-0.6219147900349987,1466.2289822359187
1703143363274,-146.43152547658647,-0.4819104900349987,1465.8337403359187
1703143363288,-147.22904477658648,-0.3259733900349987,1465.415787735919
1703143363302,-148.01270227658648,-0.1618479900349987,1464.9816054359187
1703143363317,-148.78600157658647,0.0030883099650012,1464.5339635359187
1703143363330,-149.55289797658648,0.1627817099650012,1464.0749830359186
1703143363343,-150.3170027765865,0.3109829099650013,1463.605546035919
1703143363357,-151.0798462765865,0.4418708099650013,1463.1260474359187
1703143363371,-151.84157837658648,0.5507252099650013,1462.6361340359188
1703143363386,-152.6009313765865,0.6318559999650013,1462.135550635919
1703143363400,-153.35763477658648,0.6823762499650013,1461.6250563359188
1703143363413,-154.11132097658648,0.7003068799650013,1461.1047497359189
1703143363426,-154.8620810765865,0.6858270099650013,1460.5741592359188
1703143363440,-155.60964107658648,0.6420402999650013,1460.031861135919
1703143363454,-156.3538969765865,0.5730005699650014,1459.4761569359189
1703143363467,-157.09462167658648,0.4827498499650013,1458.906037135919
1703143363483,-157.83175057658647,0.3753889499650014,1458.321274235919
1703143363496,-158.56492797658646,0.2538305499650014,1457.720745135919
1703143363509,-159.29339657658647,0.1207670499650013,1457.1049642359192
1703143363524,-160.01724597658648,-0.0216112500349986,1456.4732590359192
1703143363538,-160.73637377658648,-0.1704117500349986,1455.8248694359193
1703143363551,-161.4497717765865,-0.3227661500349986,1455.1580283359192
1703143363564,-162.15732817658647,-0.4756090500349986,1454.4707168359191
1703143363579,-162.85996577658648,-0.6265835500349987,1453.763601735919
1703143363592,-163.5572629765865,-0.7750364500349987,1453.0371815359192
1703143363606,-164.24846507658648,-0.9213912500349988,1452.2926858359192
1703143363620,-164.9332333765865,-1.0631978500349986,1451.5299706359192
1703143363635,-165.61122717658648,-1.1972245500349985,1450.750101735919
1703143363648,-166.2815058765865,-1.3210270500349983,1449.9541334359192
1703143363662,-166.9425537765865,-1.4342040500349986,1449.1455532359191
1703143363675,-167.59271917658648,-1.538183450034999,1448.327881335919
1703143363689,-168.23034397658648,-1.6304362000349988,1447.5048302359191
1703143363703,-168.85943867658648,-1.6944491800349988,1446.6738029359192
1703143363717,-169.48478767658648,-1.693143885034999,1445.8258524359192
1703143363731,-170.1072726765865,-1.6371204350349986,1444.9452096359191
1703143363745,-170.72479967658649,-1.5626218150349986,1444.0434301359192
1703143363759,-171.3330690765865,-1.497912275034999,1443.1476892359192
1703143363773,-171.9270257765865,-1.463216485034999,1442.2729481359193
1703143363788,-172.4992521765865,-1.4597584860349986,1441.4305576359193
1703143363802,-173.0448433765865,-1.4764721660349986,1440.6228204359193
1703143363816,-173.5631687765865,-1.4987311960349987,1439.8446592359192
1703143363829,-174.0577351765865,-1.5064503630349988,1439.086630835919
1703143363843,-174.53325767658652,-1.4751482930349988,1438.337052735919
1703143363857,-174.99400647658652,-1.3892844230349988,1437.5814995359192
1703143363871,-175.44161407658652,-1.2551150230349988,1436.8171743359192
1703143363884,-175.87602227658653,-1.0943985230349988,1436.0564583359192
1703143363898,-176.29788847658654,-0.9268658230349988,1435.3049854359192
1703143363912,-176.70740237658654,-0.7661720230349989,1434.5642050359193
1703143363926,-177.10478427658654,-0.6202765230349989,1433.8313924359193
1703143363940,-177.48936127658655,-0.4935163230349989,1433.1035148359192
1703143363955,-177.86110157658655,-0.3895015230349989,1432.3774842359192
1703143363968,-178.22161557658654,-0.3098896230349989,1431.650347535919
1703143363983,-178.57191527658654,-0.2571006330349989,1430.918841835919
1703143363995,-178.91215847658654,-0.2301939030349989,1430.180227135919
1703143364009,-179.24294877658653,-0.2268680480349989,1429.432775235919
1703143364023,-179.56505847658653,-0.2470329280349989,1428.676486135919
1703143364037,-179.88022327658652,-0.2913613180349989,1427.912461935919
1703143364052,-180.1912283765865,-0.3591454980349989,1427.142469335919
1703143364065,-180.5008136765865,-0.449356738034999,1426.366090435919
1703143364079,-180.8115059765865,-0.557841238034999,1425.581934435919
1703143364093,-181.12470387658647,-0.6806390380349989,1424.788054635919
1703143364107,-181.4414015765865,-0.815174938034999,1423.983827335919
1703143364120,-181.7630324765865,-0.959816838034999,1423.1699480359189
1703143364134,-182.09162547658653,-1.113274438034999,1422.346634635919
1703143364148,-182.4279251765865,-1.272283538034999,1421.512437335919
1703143364162,-182.77144417658653,-1.4329516380349991,1420.663692735919
1703143364176,-183.12136227658647,-1.5905982380349992,1419.798249235919
1703143364190,-183.4779120765865,-1.7430007380349992,1418.915041535919
1703143364204,-183.8405929765865,-1.8906714380349992,1418.015632735919
1703143364218,-184.2088827765865,-2.033245638034999,1417.101473935919
1703143364232,-184.5821080765865,-2.170135438034999,1416.172988135919
1703143364246,-184.95994377658653,-2.300021438034999,1415.229548335919
1703143364260,-185.3422782765865,-2.422619538034999,1414.2719768359188
1703143364274,-185.72968007658653,-2.538258938034999,1413.3017770359188
1703143364288,-186.1214848765865,-2.6462097380349987,1412.3214251359188
1703143364301,-186.51552747658653,-2.7449825180349987,1411.3334987359187
1703143364315,-186.9089780765865,-2.835589548034999,1410.3431083359187
1703143364329,-187.2980524765865,-2.914296128034999,1409.3530364359187
1703143364344,-187.6780458765865,-2.952140878034999,1408.3545335359188
1703143364357,-188.0474757765865,-2.936016068034999,1407.3416175359189
1703143364371,-188.4042266765865,-2.894548568034999,1406.305049535919
1703143364385,-188.7495756765865,-2.850648398034999,1405.262417535919
1703143364399,-189.0857732765865,-2.8239443980349987,1404.231838535919
1703143364413,-189.4106613765865,-2.824987517034999,1403.222575535919
1703143364426,-189.72033517658653,-2.851072787034999,1402.2441265359191
1703143364440,-190.0111243765865,-2.8885193870349988,1401.2968174359191
1703143364454,-190.2816712765865,-2.916735457034999,1400.3724026359191
1703143364468,-190.5331226765865,-2.910935728034999,1399.4561807359191
1703143364482,-190.76426697658653,-2.8521634780349987,1398.5324206359192
1703143364496,-190.97682397658656,-2.7458107780349987,1397.596871835919
1703143364509,-191.17446917658657,-2.607930378034999,1396.660875335919
1703143364523,-191.3592823765865,-2.454796878034999,1395.735212135919
1703143364537,-191.53190337658657,-2.2991333780349987,1394.826161335919
1703143364551,-191.6938296765865,-2.1512313780349985,1393.934236135919
1703143364565,-191.84612007658657,-2.0199567780349987,1393.058549035919
1703143364580,-191.99029997658656,-1.911423278034999,1392.196255535919
1703143364593,-192.12717887658656,-1.8310984880349988,1391.345672535919
1703143364607,-192.2579973765866,-1.7837272680349987,1390.506706635919
1703143364621,-192.38457917658656,-1.7700716880349987,1389.678692035919
1703143364635,-192.50833897658657,-1.7907735680349988,1388.8609469359192
1703143364649,-192.63028157658653,-1.8446530180349987,1388.0530031359192
1703143364662,-192.7506553765866,-1.9324915080349987,1387.255737635919
1703143364677,-192.8694170765866,-2.0561734080349985,1386.471109435919
1703143364690,-192.9858990765865,-2.2198197080349984,1385.704606135919
1703143364704,-193.0999264765865,-2.4242767080349985,1384.961023635919
1703143364718,-193.2108046765865,-2.6710076080349987,1384.245708035919
1703143364731,-193.3184598765866,-2.960383108034999,1383.563211935919
1703143364745,-193.4229348765866,-3.293261708034999,1382.918546835919
1703143364760,-193.5235081765866,-3.661870208034999,1382.307035035919
1703143364773,-193.6197561365866,-4.056449308034999,1381.720804835919
1703143364789,-193.7117258465866,-4.465075708034999,1381.1519431359188
1703143364802,-193.7999437565866,-4.880944208034999,1380.5918533359188
1703143364815,-193.8839314365866,-5.305862408034999,1380.0383395359188
1703143364829,-193.9630324965866,-5.746096608034999,1379.4946595359188
1703143364842,-194.0366218165866,-6.206085008034999,1378.9627989359187
1703143364857,-194.10464424658664,-6.684195808034999,1378.4398737359188
1703143364870,-194.1682034465866,-7.173276708034999,1377.9174694359187
1703143364885,-194.2278346765866,-7.667636008034999,1377.3878738359188
1703143364899,-194.2830959965866,-8.164257408034999,1376.8476040359187
1703143364913,-194.3323302565866,-8.662030808034999,1376.2963104359187
1703143364927,-194.37495944658664,-9.161092408034998,1375.7346132359187
1703143364940,-194.4105234165866,-9.660042208034998,1375.1622765359186
1703143364954,-194.4386438065866,-10.156606208034995,1374.5778801359186
1703143364967,-194.4582029565866,-10.652143408034997,1373.9826269359187
1703143364981,-194.4672247455866,-11.150633708034997,1373.3769523359188
1703143364995,-194.4665647768866,-11.649006408034996,1372.760501935919
1703143365009,-194.4584578668866,-12.145327008034997,1372.129952035919
1703143365024,-194.44503781688653,-12.637789708034996,1371.4787966359186
1703143365038,-194.42831066688657,-13.131995908034998,1370.8027816359186
1703143365051,-194.4096461468866,-13.620576008034998,1370.0988498359186
1703143365065,-194.3868627368866,-14.053843708034998,1369.3551960359189
1703143365079,-194.3644129068866,-14.420662708034998,1368.5783392359187
1703143365093,-194.3467446968866,-14.755876608034995,1367.7755533359189
1703143365107,-194.33322171688656,-15.061990308034996,1366.9775337359188
1703143365122,-194.3211431368865,-15.341973308034996,1366.1926265359189
1703143365135,-194.3140531998866,-15.577676608034997,1365.421302635919
1703143365148,-194.3211526088866,-15.733197508034998,1364.6620492359189
1703143365163,-194.3461814088866,-15.797980108034997,1363.9060676359188
1703143365176,-194.38785406888653,-15.775212198034996,1363.1544965359187
1703143365190,-194.44249085888657,-15.678537198034997,1362.4142881359187
1703143365204,-194.50578310888656,-15.527214898034996,1361.6912765359186
