time,rotate_x,rotate_y,rotate_z,angularVelocity_x,angularVelocity_y,angularVelocity_z,velocity_x,velocity_y,velocity_z,acceleration_x,acceleration_y,acceleration_z,position_x,position_y,position_z
2023-12-21 07:22:21.094000128,-0.008796033,0.006437656,0.00500724,0.05650692,-0.02935394,-0.02950962,-0.005659694,0.01405128,0.002770024,-0.005659694,0.01405128,0.002770024,-0.01824992,1.672206,-0.03662772
2023-12-21 07:22:21.102999808,-0.01765929,0.02004739,0.009767214,0.1740822,-0.1671472,-0.0372394,0.005130969,0.02288913,0.004006381,-0.0005287249999999,0.03694041,0.0067764049999999,-0.01756848,0.006570739,-0.03531753
2023-12-21 07:22:21.118000128,-0.01958627,0.01956,0.008671369,0.2067768,-0.1245655,-0.01638815,0.0004357274,0.02528482,0.003776223,-9.299759999999988e-05,0.06222523,0.010552628,-0.01790184,0.007120672,-0.03523449
2023-12-21 07:22:21.137000192,-0.0211003,0.01756017,0.008704267,0.2099805,-0.05797453,-0.002845948,-0.005252897,0.02500437,0.002964763,-0.0053458946,0.0872296,0.013517391,-0.0180204,0.007089089,-0.03543286
2023-12-21 07:22:21.155000064,-0.02460931,0.01555511,0.008649675,0.2423209,0.01450064,-0.0106339,-0.009386983,0.02677349,0.003972476,-0.0147328776,0.11400309,0.017489867,-0.01840367,0.007904886,-0.03524939
2023-12-21 07:22:21.175000064,-0.02837251,0.0144508,0.00446341,0.311628,0.06217713,0.0712206,-0.01463043,0.03175969,0.005003468,-0.0293633076,0.14576278,0.022493335,-0.01888016,0.009132717,-0.03538463
2023-12-21 07:22:21.191000064,-0.0333418,0.01224086,0.00169939,0.3887336,0.1180326,0.1506688,-0.01877541,0.03785092,0.005399571,-0.0481387176,0.1836137,0.027892906,-0.01911429,0.0100795,-0.03545076
2023-12-21 07:22:21.209000192,-0.03838441,0.009187035,0.001516027,0.4669732,0.1889215,0.1383427,-0.0209091,0.04482001,0.005506845,-0.0690478176,0.22843371,0.033399751,-0.01934943,0.01100914,-0.03563881
2023-12-21 07:22:21.224999936,-0.04303281,0.007111888,0.0007688476,0.5229324,0.2324886,0.1142726,-0.02291216,0.04904218,0.004035477,-0.0919599776,0.27747589,0.037435228,-0.01979664,0.01167281,-0.03590218
2023-12-21 07:22:21.242000128,-0.04604661,0.005067308,-0.001275652,0.5262399,0.2577258,0.1314792,-0.02490907,0.04969277,0.001390069,-0.1168690476,0.32716866,0.038825297,-0.02017443,0.01242921,-0.03616356
2023-12-21 07:22:21.259000064,-0.048285,0.003864918,-0.00325094,0.4853614,0.2608657,0.1615706,-0.02622294,0.0461673,-0.001993589,-0.1430919876,0.37333596,0.036831708,-0.02050749,0.01283376,-0.03647063
2023-12-21 07:22:21.275000064,-0.04999037,0.002944425,-0.003637177,0.4163286,0.2300044,0.1498733,-0.0249276,0.04090385,-0.005044119,-0.1680195876,0.41423981,0.031787589,-0.02061668,0.01320622,-0.03661419
2023-12-21 07:22:21.290999808,-0.05212803,0.0009669214,-0.002077734,0.3759685,0.2242787,0.04924123,-0.02352003,0.03630466,-0.005463336,-0.1915396176,0.45054447,0.026324253,-0.02078322,0.0136235,-0.03669944
2023-12-21 07:22:21.305999872,-0.05341932,0.001035977,-0.002649783,0.3333585,0.179648,0.02811431,-0.02135663,0.03152858,-0.005328586,-0.2128962475999999,0.48207305,0.020995667,-0.02107626,0.0139212,-0.03679068
2023-12-21 07:22:21.321000192,-0.05427934,-0.0008111447,1.178565e-05,0.2686571,0.170357,-0.06502569,-0.02213513,0.02638121,-0.005138734,-0.2350313775999999,0.50845426,0.015856933,-0.02151903,0.01409829,-0.03700988
2023-12-21 07:22:21.336000000,-0.0556899,-0.00177199,0.00116214,0.2355122,0.1601362,-0.1302038,-0.02159655,0.02551092,-0.003663078,-0.2566279275999999,0.53396518,0.012193855,-0.02174185,0.014373,-0.03698178
2023-12-21 07:22:21.351000064,-0.05687448,-0.001921456,0.001417344,0.2164436,0.1179352,-0.1231948,-0.02108384,0.02275214,-0.001313421,-0.2777117676,0.5567173200000001,0.010880434,-0.02199881,0.01443518,-0.03699207
2023-12-21 07:22:21.364999936,-0.0579086,-0.002640184,0.001661551,0.1868156,0.09347368,-0.101481,-0.02189994,0.01754754,0.00131536,-0.2996117076,0.5742648600000001,0.012195794,-0.0223435,0.01436245,-0.03697289
2023-12-21 07:22:21.380000000,-0.05709545,-0.00331809,0.002880832,0.1079541,0.09738981,-0.1130877,-0.02119586,0.01228999,0.001424413,-0.3208075676,0.5865548500000001,0.013620207,-0.02254855,0.01443946,-0.03693655
2023-12-21 07:22:21.394000128,-0.05675789,-0.003908157,0.00394035,0.05509726,0.08274258,-0.1356709,-0.0183021,0.004879795,0.003479944,-0.3391096676,0.5914346450000001,0.017100151,-0.0227423,0.01446641,-0.03691567
2023-12-21 07:22:21.408999936,-0.05555539,-0.00423754,0.004763408,-0.01915804,0.06231621,-0.1323572,-0.01474101,-0.00148122,0.004649852,-0.3538506776,0.5899534250000001,0.021750003,-0.02283925,0.01420576,-0.03684849
2023-12-21 07:22:21.423000064,-0.05436899,-0.004588414,0.005170085,-0.0797376,0.05094003,-0.1172166,-0.01094265,-0.00835018,0.007126912,-0.3647933276,0.5816032450000002,0.028876915,-0.02286156,0.01388307,-0.03666412
2023-12-21 07:22:21.436000000,-0.05276106,-0.004961777,0.005442298,-0.1309033,0.04299084,-0.09518009,-0.007236188,-0.01471011,0.009661612,-0.3720295155999999,0.5668931350000002,0.038538527,-0.02283876,0.01349968,-0.03643664
2023-12-21 07:22:21.450000128,-0.05088464,-0.004676618,0.005443455,-0.1842531,0.02523199,-0.06572053,-0.003507389,-0.02052124,0.01195183,-0.3755369046,0.5463718950000002,0.050490357,-0.02265849,0.01283858,-0.03613673
2023-12-21 07:22:21.464000000,-0.04889982,-0.004488263,0.005123012,-0.2270121,0.008690887,-0.02969311,9.439536e-07,-0.02570816,0.01393416,-0.3755359606464,0.5206637350000002,0.064424517,-0.02256408,0.01235448,-0.03591599
2023-12-21 07:22:21.479000064,-0.04695022,-0.003956363,0.004796193,-0.2471491,-0.02044502,0.004729053,0.004377883,-0.0276544,0.01574601,-0.3711580776463999,0.4930093350000001,0.080170527,-0.02235728,0.01208654,-0.03558489
2023-12-21 07:22:21.492999936,-0.04542958,-0.00318969,0.004603503,-0.2404475,-0.04958762,0.02641841,0.008873347,-0.02714198,0.01771748,-0.3622847306464,0.4658673550000001,0.097888007,-0.02209776,0.01182512,-0.03524373
2023-12-21 07:22:21.507000064,-0.04366377,-0.002436757,0.004163369,-0.2359081,-0.07620046,0.04480264,0.01234116,-0.02613009,0.01850315,-0.3499435706463999,0.4397372650000001,0.116391157,-0.02183017,0.01156209,-0.03492063
2023-12-21 07:22:21.520999936,-0.04229978,-0.001420867,0.003777682,-0.2355586,-0.09744241,0.05008496,0.01512528,-0.02561671,0.01831159,-0.3348182906463999,0.4141205550000001,0.1347027469999999,-0.02159044,0.01110696,-0.03465299
2023-12-21 07:22:21.536000000,-0.04049182,-0.0002828464,0.003091202,-0.2364209,-0.1210938,0.07410546,0.01606591,-0.02484906,0.01768017,-0.3187523806463999,0.3892714950000002,0.1523829169999999,-0.02139124,0.0108315,-0.03435165
2023-12-21 07:22:21.551000064,-0.0390967,0.0007902943,0.00297509,-0.2308055,-0.130458,0.07152244,0.01688543,-0.02337631,0.01676922,-0.3018669506463999,0.3658951850000002,0.1691521369999999,-0.02116684,0.01053836,-0.03407687
2023-12-21 07:22:21.564000000,-0.03800799,0.001696955,0.002868603,-0.2062151,-0.1382996,0.05693542,0.01652253,-0.02019918,0.01626862,-0.2853444206464,0.3456960050000002,0.185420757,-0.02090651,0.0104355,-0.0337472
2023-12-21 07:22:21.576999936,-0.03751385,0.002689712,0.003005832,-0.1657507,-0.1378127,0.03962279,0.01563552,-0.01610071,0.01583763,-0.2697089006463999,0.3295952950000002,0.2012583869999999,-0.02075545,0.01029432,-0.03347556
2023-12-21 07:22:21.592000000,-0.03684667,0.003239345,0.003944982,-0.1331407,-0.1213171,-0.0107776,0.0145407,-0.01199174,0.01504981,-0.2551682006463999,0.3176035550000001,0.2163081969999999,-0.02059021,0.01012674,-0.0332422
2023-12-21 07:22:21.605999872,-0.03623282,0.003670812,0.004427264,-0.1133499,-0.1093284,-0.03703393,0.01265262,-0.01016609,0.01450364,-0.2425155806463999,0.3074374650000001,0.230811837,-0.02045779,0.009865374,-0.03305304
2023-12-21 07:22:21.620000000,-0.03506507,0.004305542,0.005085981,-0.1242509,-0.104807,-0.05456179,0.01084052,-0.01006272,0.01273237,-0.2316750606463999,0.2973747450000001,0.2435442069999999,-0.02028069,0.009665889,-0.03284815
2023-12-21 07:22:21.634000128,-0.03376848,0.00444781,0.005732983,-0.1435644,-0.08929234,-0.05770852,0.009018331,-0.01195285,0.01146363,-0.2226567296463999,0.2854218950000001,0.2550078369999999,-0.0201803,0.009443635,-0.03268213
2023-12-21 07:22:21.647000064,-0.03199847,0.005214311,0.005201451,-0.1764577,-0.08184115,-0.03145811,0.006337228,-0.0151435,0.01040881,-0.2163195016463999,0.2702783950000001,0.2654166469999999,-0.02013972,0.009222364,-0.03248929
2023-12-21 07:22:21.660999936,-0.02991649,0.006034553,0.004957934,-0.217542,-0.08483311,-0.009188743,0.004885725,-0.01859943,0.00927299,-0.2114337766463999,0.2516789650000001,0.2746896369999999,-0.02012893,0.008757556,-0.03239179
2023-12-21 07:22:21.675000064,-0.02825328,0.006857406,0.005408952,-0.2330351,-0.1011438,-0.006844989,0.006374782,-0.02176303,0.009380273,-0.2050589946463999,0.2299159350000001,0.2840699099999999,-0.01995724,0.008408153,-0.03214808
2023-12-21 07:22:21.688999936,-0.02702577,0.008025888,0.005919549,-0.222233,-0.1271697,-0.02174843,0.009094855,-0.02171862,0.009988603,-0.1959641396463999,0.2081973150000001,0.2940585129999999,-0.01971608,0.008183929,-0.03188954
2023-12-21 07:22:21.703000064,-0.02630658,0.009590585,0.006682532,-0.1882082,-0.1584292,-0.04531027,0.01294709,-0.01834562,0.01127411,-0.1830170496463999,0.1898516950000001,0.3053326229999999,-0.01939636,0.007981228,-0.03162814
2023-12-21 07:22:21.716999936,-0.02570969,0.0111364,0.007939633,-0.1460881,-0.1940862,-0.08635055,0.01589257,-0.0159151,0.01188161,-0.1671244796463999,0.173936595,0.3172142329999999,-0.01929608,0.007741318,-0.03120491
2023-12-21 07:22:21.731000064,-0.02425172,0.01167225,0.006972327,-0.1553874,-0.1719904,-0.0282975,0.01287212,-0.01556165,0.009798429,-0.1542523596463999,0.158374945,0.3270126619999999,-0.01918507,0.007391652,-0.03135394
2023-12-21 07:22:21.744000000,-0.02277751,0.0124368,0.007719726,-0.1736492,-0.1518128,-0.02784663,0.01095677,-0.01682296,0.007343853,-0.1432955896463999,0.141551985,0.3343565149999999,-0.01900774,0.007075102,-0.03120483
2023-12-21 07:22:21.757999872,-0.02173551,0.01334785,0.008619976,-0.1717175,-0.1414295,-0.05159162,0.01008761,-0.01623255,0.005607617,-0.1332079796463999,0.1253194350000001,0.3399641319999999,-0.01891525,0.006827231,-0.03104486
2023-12-21 07:22:21.772000000,-0.02168812,0.0138827,0.008890041,-0.1298747,-0.1252147,-0.05626523,0.008821036,-0.0129013,0.004997792,-0.1243869436463999,0.112418135,0.3449619239999999,-0.01884034,0.006689047,-0.03094725
2023-12-21 07:22:21.786000128,-0.02189519,0.01456102,0.009071559,-0.07327596,-0.1136619,-0.04662378,0.007645854,-0.008022886,0.004869617,-0.1167410896463999,0.104395249,0.3498315409999999,-0.01878518,0.006659681,-0.03084918
2023-12-21 07:22:21.800000000,-0.02225471,0.01506877,0.009164426,-0.0228808,-0.09792143,-0.03240807,0.006458117,-0.003911567,0.004570962,-0.1102829726463999,0.100483682,0.3544025029999999,-0.01875575,0.006665043,-0.03078567
2023-12-21 07:22:21.812999936,-0.02240225,0.01545757,0.008941486,0.003624491,-0.08302549,-0.008153236,0.005630051,-0.001488402,0.003172662,-0.1046529216463999,0.09899528,0.3575751649999999,-0.01872496,0.006687328,-0.03076686
2023-12-21 07:22:21.828000000,-0.0220493,0.01581543,0.008649727,-0.002981434,-0.07296377,0.01150779,0.005009688,-0.001011107,0.0008557659,-0.0996432336463999,0.097984173,0.3584309308999999,-0.01866632,0.006702993,-0.03076872
2023-12-21 07:22:21.842000128,-0.0219942,0.01606307,0.008528991,-0.01043024,-0.05652538,0.01976565,0.004562679,-0.0007166759,-0.001473246,-0.0950805546463999,0.0972674971,0.3569576848999999,-0.01860954,0.006704789,-0.03081199
2023-12-21 07:22:21.857000192,-0.02228449,0.01609002,0.008403502,0.004307012,-0.03705983,0.02612437,0.003482994,0.0004525423,-0.003024626,-0.0915975606463999,0.0977200394,0.3539330589,-0.01860594,0.006711525,-0.03089935
2023-12-21 07:22:21.869999872,-0.02270656,0.01608335,0.00775098,0.0236191,-0.01679993,0.03785678,0.001745133,0.002587054,-0.004339238,-0.0898524276463999,0.1003070934,0.3495938208999999,-0.0186446,0.006803183,-0.03100409
2023-12-21 07:22:21.882999808,-0.02309239,0.01576712,0.007478231,0.0393574,0.002944772,0.0430567,2.681311e-05,0.004569525,-0.005310744,-0.0898256145363999,0.1048766184,0.3442830769,-0.01869503,0.006921921,-0.0311195
2023-12-21 07:22:21.897000192,-0.02379294,0.01541051,0.007194167,0.05674151,0.0236269,0.04060155,-0.001872982,0.006437113,-0.006004216,-0.0916985965363999,0.1113137314,0.3382788609,-0.01876814,0.007085056,-0.03123036
2023-12-21 07:22:21.911000064,-0.02429894,0.01504048,0.006860095,0.06906378,0.03840222,0.03918624,-0.002899942,0.008265188,-0.006254832,-0.0945985385363999,0.1195789194,0.3320240289,-0.01884009,0.007265896,-0.03133848
2023-12-21 07:22:21.924999936,-0.02518456,0.01473002,0.006507329,0.08904479,0.04561084,0.03742414,-0.003626233,0.009467907,-0.005865362,-0.0982247715363999,0.1290468264,0.3261586669,-0.01894823,0.00738648,-0.03145538
2023-12-21 07:22:21.940000000,-0.0260886,0.01436307,0.006266942,0.1025947,0.05087033,0.03451138,-0.003477011,0.01001681,-0.005165935,-0.1017017825363999,0.1390636364,0.3209927319,-0.01903116,0.007496745,-0.0315553
2023-12-21 07:22:21.953000192,-0.02667743,0.01427624,0.005989928,0.1018104,0.04179107,0.03554843,-0.002942958,0.01000491,-0.004510832,-0.1046447405363999,0.1490685464,0.3164818999,-0.01905908,0.00764824,-0.0316071
2023-12-21 07:22:21.967000064,-0.02721021,0.01436386,0.005800896,0.09429193,0.02793794,0.02920959,-0.001748354,0.009315286,-0.003928484,-0.1063930945363999,0.1583838324,0.3125534158999999,-0.01904256,0.007784243,-0.03163413
2023-12-21 07:22:21.980999936,-0.02743201,0.01444421,0.005863355,0.0780744,0.01058405,0.01934197,-0.0003401263,0.008201677,-0.003743013,-0.1067332208363999,0.1665855094,0.3088104028999999,-0.01900708,0.00787163,-0.03167396
2023-12-21 07:22:21.994999808,-0.02763566,0.01459418,0.005607604,0.05937398,-0.004532075,0.02233983,0.0007601676,0.006194057,-0.003286518,-0.1059730532363999,0.1727795664,0.3055238848999999,-0.01897537,0.007911601,-0.03170902
2023-12-21 07:22:22.008000000,-0.02768542,0.01479601,0.005490933,0.04150195,-0.01261654,0.02370243,0.001526268,0.00417417,-0.002839385,-0.1044467852363999,0.1769537364,0.3026844998999999,-0.01894177,0.007914893,-0.03173371
2023-12-21 07:22:22.023000064,-0.02771318,0.015001,0.005214653,0.02479914,-0.01911343,0.02760128,0.002389675,0.002285319,-0.002228326,-0.1020571102363999,0.1792390554,0.3004561738999999,-0.01885943,0.007928967,-0.03172209
2023-12-21 07:22:22.036999936,-0.02776883,0.01507257,0.005158897,0.01264535,-0.01443303,0.02183139,0.002685852,0.001269849,-0.001324141,-0.0993712582363999,0.1805089044,0.2991320328999999,-0.01878514,0.007935897,-0.03169981
2023-12-21 07:22:22.051000064,-0.02770587,0.01506939,0.00518785,0.007649634,-0.009668373,0.01121175,0.002444206,0.0005567231,-0.0007186728,-0.0969270522363999,0.1810656275,0.2984133600999999,-0.01875285,0.0079267,-0.03169446
2023-12-21 07:22:22.064000000,-0.02768279,0.01512298,0.005014158,0.00473004,-0.007626811,0.01630436,0.00166117,-0.0002780186,-6.834228e-05,-0.0952658822363999,0.1807876089,0.2983450178199999,-0.01876522,0.007911468,-0.03168894
2023-12-21 07:22:22.078000128,-0.02769578,0.0148728,0.004682023,0.002845791,0.005817831,0.02410137,0.0002488802,-0.0002829364,0.001163011,-0.0950170020363999,0.1805046725,0.2995080288199999,-0.01880681,0.00792437,-0.0316688
2023-12-21 07:22:22.092999936,-0.02777874,0.01408891,0.004901038,0.01544121,0.03514974,0.01174005,-0.001738041,0.0007855397,0.003174457,-0.0967550430363999,0.1812902122,0.3026824858199999,-0.01886501,0.007956696,-0.03161807
2023-12-21 07:22:22.105999872,-0.02870031,0.01341271,0.004225096,0.04256251,0.06983997,0.008477255,-0.004087463,0.003512862,0.004804888,-0.1008425060363999,0.1848030742,0.3074873738199999,-0.01896506,0.008121234,-0.03154797
2023-12-21 07:22:22.120000000,-0.02972971,0.01263507,0.005039616,0.0750284,0.08189295,-0.01378427,-0.004756695,0.00650814,0.006756367,-0.1055992010363999,0.1913112142,0.3142437408199999,-0.01906095,0.008234723,-0.0314676
2023-12-21 07:22:22.134000128,-0.03086698,0.01193751,0.005071291,0.1050375,0.0908847,-0.02882207,-0.005617805,0.008441372,0.007956805,-0.1112170060363999,0.1997525862,0.3222005458199999,-0.01917862,0.008398083,-0.03138958
2023-12-21 07:22:22.148000000,-0.03128924,0.01101854,0.005183297,0.1046217,0.1060727,-0.03278646,-0.007106222,0.00982828,0.007777086,-0.1183232280363999,0.2095808662,0.3299776318199999,-0.01931959,0.008564488,-0.03134486
2023-12-21 07:22:22.161999872,-0.03196096,0.01015316,0.005211051,0.09847637,0.1151365,-0.02488726,-0.008909763,0.009147191,0.007514222,-0.1272329910363999,0.2187280572,0.3374918538199999,-0.01946507,0.008679893,-0.03127586
2023-12-21 07:22:22.176000000,-0.03213374,0.009369306,0.005110417,0.07769897,0.1157628,-0.01374862,-0.01039881,0.008207398,0.006393559,-0.1376318010363999,0.2269354552,0.3438854128199999,-0.01962492,0.008784546,-0.03123848
2023-12-21 07:22:22.190000128,-0.03255061,0.008675743,0.005031589,0.06618545,0.1109173,-0.01213651,-0.01102599,0.007655646,0.006045949,-0.1486577910363999,0.2345911012,0.3499313618199999,-0.01980372,0.008872779,-0.03121343
2023-12-21 07:22:22.204000000,-0.03299429,0.008249085,0.005090178,0.06114202,0.100323,-0.008894638,-0.01117736,0.007426106,0.006302984,-0.1598351510363999,0.2420172072,0.3562343458199999,-0.01997802,0.008953463,-0.03115903
2023-12-21 07:22:22.217999872,-0.03351586,0.007606879,0.005205743,0.06417032,0.0913667,-0.01758505,-0.01121848,0.007341618,0.006672451,-0.1710536310363999,0.2493588252,0.3629067968199999,-0.02013428,0.009055043,-0.03109191
2023-12-21 07:22:22.231000064,-0.0340835,0.007182043,0.005441956,0.06944863,0.08072302,-0.02345655,-0.01130978,0.008005587,0.007125032,-0.1823634110363999,0.2573644122,0.3700318288199999,-0.02028068,0.009191384,-0.03098927
2023-12-21 07:22:22.244999936,-0.03452258,0.006884161,0.005750551,0.0715934,0.06690763,-0.029843,-0.01134584,0.008698158,0.007502918,-0.1937092510363999,0.2660625702,0.3775347468199999,-0.02043074,0.009326903,-0.03087961
2023-12-21 07:22:22.260000000,-0.03513556,0.006681044,0.005899939,0.07283545,0.05336384,-0.03285503,-0.01137657,0.008420655,0.007264399,-0.2050858210363999,0.2744832252,0.3847991458199999,-0.02060772,0.009414201,-0.03080259
2023-12-21 07:22:22.272999936,-0.03561064,0.006544702,0.005926988,0.06787319,0.04064709,-0.02995416,-0.01168558,0.00802141,0.006942758,-0.2167714010363999,0.2825046352,0.3917419038199999,-0.02079553,0.009501281,-0.03072819
2023-12-21 07:22:22.288000000,-0.03599622,0.006400406,0.006195784,0.06387336,0.02846895,-0.02912527,-0.01217009,0.007722728,0.007089403,-0.2289414910363999,0.2902273632,0.3988313068199999,-0.02096731,0.009593015,-0.03062172
2023-12-21 07:22:22.301000192,-0.03650291,0.006104343,0.006596853,0.06682554,0.02636114,-0.03946624,-0.01247103,0.007589261,0.008070355,-0.2414125210363999,0.2978166242,0.4069016618199998,-0.02112754,0.009686925,-0.0304837
2023-12-21 07:22:22.315000064,-0.03701248,0.00576948,0.007108558,0.07052179,0.03473785,-0.05311736,-0.01262623,0.007624519,0.009361578,-0.2540387510363999,0.3054411432,0.4162632398199998,-0.02129868,0.009766842,-0.03033623
2023-12-21 07:22:22.328000000,-0.03736527,0.005370699,0.007451693,0.06933983,0.03663288,-0.05700476,-0.01337163,0.00694369,0.01012538,-0.2674103810363999,0.3123848332,0.4263886198199998,-0.02151782,0.009810938,-0.03022247
2023-12-21 07:22:22.342000128,-0.03770592,0.005053356,0.00779416,0.05635698,0.043193,-0.05855257,-0.01380788,0.005370276,0.01058,-0.2812182610363999,0.3177551092,0.4369686198199998,-0.02173586,0.009813061,-0.03010385
2023-12-21 07:22:22.356000000,-0.03750141,0.00480425,0.007875767,0.03013844,0.04018307,-0.04637129,-0.01464796,0.003518979,0.01054787,-0.2958662210363999,0.3212740882,0.4475164898199998,-0.02194448,0.00982688,-0.02995743
2023-12-21 07:22:22.369999872,-0.03729622,0.004773911,0.00777486,0.008318914,0.03348114,-0.03183797,-0.01577514,0.00181822,0.01038864,-0.3116413610363999,0.3230923082,0.4579051298199998,-0.02216785,0.009837439,-0.0297959
2023-12-21 07:22:22.384000000,-0.03725883,0.004397798,0.007933628,-0.002174265,0.03482757,-0.02364142,-0.01634392,0.0006627139,0.01089737,-0.3279852810363999,0.3237550221,0.4688024998199999,-0.02240957,0.009815792,-0.02964783
2023-12-21 07:22:22.398000128,-0.03751128,0.003651805,0.008582028,0.004426369,0.05052418,-0.04136548,-0.01658068,9.72082e-05,0.0117706,-0.3445659610363999,0.3238522303,0.4805730998199999,-0.02268184,0.009753145,-0.02948627
2023-12-21 07:22:22.412000000,-0.0376323,0.002875861,0.009022777,0.009940756,0.06934104,-0.05839755,-0.01710085,0.0001977154,0.01308216,-0.3616668110363999,0.3240499457,0.4936552598199999,-0.0229582,0.009745467,-0.02931326
2023-12-21 07:22:22.426000128,-0.03776579,0.001914013,0.009227552,0.01244689,0.09240291,-0.05925117,-0.01704995,0.000129541,0.0143418,-0.3787167610363999,0.3241794867,0.5079970598199999,-0.02315855,0.009725247,-0.02913789
2023-12-21 07:22:22.440000000,-0.03770591,0.00106686,0.00937989,0.007818622,0.1066769,-0.05515724,-0.01634521,-0.0002423614,0.01475125,-0.3950619710363999,0.3239371253,0.5227483098199999,-0.02334757,0.009691432,-0.02897737
2023-12-21 07:22:22.453999872,-0.03751746,0.0003079548,0.009275561,-0.006848064,0.1078188,-0.03612728,-0.01521535,-0.001117183,0.01427871,-0.4102773210363999,0.3228199423,0.5370270198199999,-0.02350543,0.009650745,-0.02886571
2023-12-21 07:22:22.460999936,-0.03725062,-0.0003657006,0.009100689,-0.01314812,0.1101115,-0.02679525,-0.0144151,-0.00168281,0.01386995,-0.4246924210364,0.3211371323,0.5508969698199999,-0.0237073,0.009646759,-0.02873321
2023-12-21 07:22:22.474999808,-0.037299,-0.001029946,0.008790362,-0.01498217,0.1062084,-0.002573594,-0.01297591,-0.001319233,0.01325461,-0.4376683310363999,0.3198178993,0.5641515798199999,-0.02390282,0.009684929,-0.02858637
2023-12-21 07:22:22.489000192,-0.03800732,-0.001787625,0.008512434,0.01169278,0.1052071,0.01204847,-0.01172927,0.002008545,0.01308724,-0.4493976010364,0.3218264443,0.5772388198199998,-0.02402265,0.009847585,-0.02844255
2023-12-21 07:22:22.503000064,-0.03944137,-0.002669368,0.008322821,0.06356729,0.1126265,0.01624194,-0.01033815,0.007249484,0.01350863,-0.4597357510363999,0.3290759283,0.5907474498199998,-0.02411488,0.01014188,-0.02827706
2023-12-21 07:22:22.516999936,-0.04095219,-0.003680509,0.008331577,0.1069261,0.119355,0.01186956,-0.009033499,0.01200126,0.01366429,-0.4687692500363999,0.3410771883,0.6044117398199998,-0.02409525,0.01062605,-0.02811324
2023-12-21 07:22:22.528999936,-0.04215884,-0.004753307,0.008559063,0.1396329,0.1328201,-0.01264843,-0.006758047,0.0153754,0.01360228,-0.4755272970363999,0.3564525883,0.6180140198199998,-0.02411775,0.01086166,-0.02802697
2023-12-21 07:22:22.544000000,-0.04321527,-0.005824395,0.008825697,0.143823,0.1386849,-0.0256238,-0.004512716,0.01671756,0.01263765,-0.4800400130364,0.3731701483,0.6306516698199998,-0.02407667,0.01096495,-0.02799209
2023-12-21 07:22:22.558000128,-0.04365395,-0.006670032,0.008908854,0.1311887,0.1365382,-0.02814259,-0.001579615,0.01614649,0.01070208,-0.4816196280363999,0.3893166383,0.6413537498199997,-0.02413544,0.01121882,-0.0278607
2023-12-21 07:22:22.572000000,-0.04381987,-0.007144507,0.008515023,0.1007646,0.1221796,-0.01585042,0.001548887,0.01483668,0.008331992,-0.4800707410363999,0.4041533183,0.6496857418199997,-0.02401001,0.01142687,-0.02783078
2023-12-21 07:22:22.585999872,-0.04393037,-0.007285915,0.008073454,0.07129639,0.09905987,0.009909925,0.004583414,0.01314124,0.005475425,-0.4754873270363999,0.4172945583,0.6551611668199997,-0.02384572,0.01159039,-0.02784619
2023-12-21 07:22:22.599000064,-0.04410243,-0.007388487,0.007529023,0.05028801,0.07668524,0.03373999,0.007605665,0.01168437,0.003129743,-0.4678816620363999,0.4289789283,0.6582909098199997,-0.02364025,0.01174055,-0.02788142
2023-12-21 07:22:22.612999936,-0.04466797,-0.007450197,0.007041442,0.0528183,0.0561693,0.04635358,0.01002881,0.01123244,0.002265493,-0.4578528520363999,0.4402113683,0.6605564028199997,-0.02341652,0.0119127,-0.02787541
2023-12-21 07:22:22.627000064,-0.04557448,-0.007664073,0.006466951,0.0698252,0.04964864,0.05632001,0.01200103,0.01189954,0.002586636,-0.4458518220363999,0.4521109083,0.6631430388199997,-0.02317164,0.01214652,-0.02781323
2023-12-21 07:22:22.640999936,-0.04652711,-0.008062046,0.005973347,0.09307933,0.05207567,0.05939687,0.01390083,0.0125912,0.003774117,-0.4319509920363999,0.4647021083,0.6669171558199997,-0.02290345,0.01238731,-0.02771932
2023-12-21 07:22:22.655000064,-0.04716656,-0.008269232,0.005393329,0.09722281,0.04863989,0.06758527,0.01552721,0.01237596,0.004727051,-0.4164237820363999,0.4770780683,0.6716442068199997,-0.02255202,0.0125185,-0.02762634
2023-12-21 07:22:22.668999936,-0.04721768,-0.008440055,0.004916838,0.08254573,0.04307124,0.06529407,0.01731782,0.01062611,0.004943674,-0.3991059620364,0.4877041783,0.6765878808199997,-0.02222498,0.01262395,-0.02758517
2023-12-21 07:22:22.683000064,-0.04709073,-0.008535586,0.004542439,0.05173649,0.03741112,0.06791265,0.0190799,0.007581387,0.004989504,-0.3800260620364,0.4952855653,0.6815773848199996,-0.02196854,0.01264123,-0.02751712
2023-12-21 07:22:22.696999936,-0.04696599,-0.008629646,0.003967664,0.02412022,0.03187917,0.07059892,0.02046082,0.003971446,0.004733331,-0.3595652420364,0.4992570113,0.6863107158199996,-0.02162812,0.01258583,-0.02746751
2023-12-21 07:22:22.711000064,-0.04668111,-0.008482933,0.003188906,0.002884638,0.02266889,0.07716621,0.02142158,0.0007217199,0.004731674,-0.3381436620364,0.4999787312,0.6910423898199995,-0.02131192,0.01259337,-0.02736809
2023-12-21 07:22:22.724999936,-0.04655246,-0.008209098,0.002592346,-0.007608471,0.0121667,0.08055369,0.02232291,-0.001488375,0.005076414,-0.3158207520364,0.4984903562,0.6961188038199996,-0.02103079,0.01258619,-0.02724266
2023-12-21 07:22:22.739000064,-0.04682971,-0.00824276,0.002050649,-0.004400032,0.004426734,0.08259553,0.02279087,-0.001896926,0.005800017,-0.2930298820364,0.4965934302,0.7019188208199996,-0.0206683,0.01261337,-0.02712783
2023-12-21 07:22:22.752999936,-0.0472946,-0.008246683,0.001546277,0.01372122,0.005075096,0.08105133,0.02341363,-0.001550797,0.007317105,-0.2696162520364,0.4950426332,0.7092359258199996,-0.02029812,0.01261756,-0.02696314
2023-12-21 07:22:22.767000064,-0.04747151,-0.008251376,0.001312623,0.02570858,0.00900041,0.07122435,0.02389704,-0.001776151,0.008837846,-0.2457192120364,0.4932664822,0.7180737718199997,-0.01998653,0.01258712,-0.02677349
2023-12-21 07:22:22.780999936,-0.04746274,-0.008346777,0.0008844759,0.02061159,0.01343487,0.06314822,0.02447847,-0.003846099,0.009552939,-0.2212407420363999,0.4894203832,0.7276267108199996,-0.01959783,0.01239037,-0.02665573
2023-12-21 07:22:22.795000064,-0.0468178,-0.00828762,0.0004440877,-0.004685612,0.01190634,0.05674945,0.02502129,-0.007027996,0.009531339,-0.1962194520363999,0.4823923872,0.7371580498199997,-0.01922695,0.01224566,-0.02653847
2023-12-21 07:22:22.808999936,-0.04623549,-0.008153986,-5.572988e-05,-0.0367038,0.006485171,0.06137923,0.02572999,-0.009445373,0.008912119,-0.1704894620363999,0.4729470142,0.7460701688199997,-0.01887252,0.01211992,-0.02642263
2023-12-21 07:22:22.823000064,-0.04613389,-0.007900748,-0.0003092787,-0.04195791,-0.004355808,0.06160985,0.02607997,-0.01004427,0.008602614,-0.1444094920363999,0.4629027442,0.7546727828199996,-0.01848294,0.01202498,-0.02625578
2023-12-21 07:22:22.836000000,-0.04585475,-0.007793516,-0.0008058818,-0.03873633,-0.01065053,0.06065709,0.02616894,-0.008438429,0.008674926,-0.1182405520363999,0.4544643152,0.7633477088199996,-0.018078,0.01205991,-0.02607828
2023-12-21 07:22:22.849999872,-0.04583495,-0.007469188,-0.001147651,-0.02700621,-0.01501921,0.06139473,0.0259084,-0.006323044,0.008808035,-0.0923321520363999,0.4481412712,0.7721557438199996,-0.01776274,0.0120522,-0.02592218
2023-12-21 07:22:22.864999936,-0.04559994,-0.00734666,-0.00157419,-0.02688373,-0.01537209,0.05700304,0.0255837,-0.004700447,0.008459751,-0.0667484520363999,0.4434408242,0.7806154948199996,-0.01738728,0.0120043,-0.02586266
2023-12-21 07:22:22.878000128,-0.04522487,-0.007190689,-0.002108546,-0.03453203,-0.01957464,0.06255394,0.02503301,-0.003930551,0.007364159,-0.0417154420363999,0.4395102732,0.7879796538199996,-0.01700034,0.01198934,-0.02577661
2023-12-21 07:22:22.892000000,-0.04495052,-0.006718989,-0.002491407,-0.04198132,-0.0261797,0.06341413,0.02435005,-0.00342317,0.006007864,-0.0173653920363999,0.4360871032,0.7939875178199995,-0.01670974,0.01192759,-0.02571101
2023-12-21 07:22:22.905999872,-0.04454773,-0.006384343,-0.003117321,-0.04217676,-0.03041508,0.06918136,0.02364964,-0.002880299,0.00454123,0.0062842479636,0.4332068042000001,0.7985287478199995,-0.0163626,0.01200609,-0.02565441
2023-12-21 07:22:22.920000000,-0.04455182,-0.006033838,-0.003293311,-0.03794247,-0.03499434,0.07072011,0.02253035,-0.001260048,0.002894289,0.0288145979636,0.4319467562,0.8014230368199995,-0.01611303,0.01207107,-0.02564826
2023-12-21 07:22:22.934000128,-0.04482327,-0.005751237,-0.003855187,-0.01565598,-0.04022561,0.06936718,0.0214125,0.0003501786,0.0007897857,0.0502270979636,0.4322969348,0.8022128225199995,-0.01577803,0.0121488,-0.02567348
2023-12-21 07:22:22.948000000,-0.0448399,-0.005151011,-0.004259156,0.001404293,-0.04641271,0.06658141,0.02047809,0.001421007,-0.001496573,0.0707051879636,0.4337179418,0.8007162495199995,-0.01554001,0.01224572,-0.02573296
2023-12-21 07:22:22.961999872,-0.04511754,-0.004591674,-0.004410209,0.006862371,-0.05183475,0.06039464,0.01968037,0.001790134,-0.004183655,0.0903855579636,0.4355080758,0.7965325945199996,-0.01530299,0.0121866,-0.0258229
2023-12-21 07:22:22.976000000,-0.04511981,-0.004265115,-0.004705616,0.00575851,-0.05776648,0.0571898,0.01859388,0.001574139,-0.006782402,0.1089794379636,0.4370822148,0.7897501925199996,-0.01499538,0.01222859,-0.02581295
2023-12-21 07:22:22.990000128,-0.04530527,-0.003755592,-0.004877529,0.01121462,-0.06078276,0.04922528,0.01744131,0.001023743,-0.008971459,0.1264207479636,0.4381059578,0.7807787335199996,-0.01478425,0.01225322,-0.02595343
2023-12-21 07:22:23.004000000,-0.04544174,-0.003104594,-0.005147471,0.01640756,-0.06771606,0.05139069,0.015971,0.0006129944,-0.01093072,0.1423917479636,0.4387189522,0.7698480135199997,-0.01460205,0.01228402,-0.02610512
2023-12-21 07:22:23.017999872,-0.04560288,-0.00245152,-0.005401515,0.01743747,-0.07262452,0.0484079,0.01444658,0.0007650822,-0.01232689,0.1568383279636,0.4394840344,0.7575211235199997,-0.01444069,0.01231896,-0.02625777
2023-12-21 07:22:23.032000000,-0.0456358,-0.001902293,-0.005794476,0.01727897,-0.07581379,0.05434135,0.01293603,0.0008445948,-0.01364946,0.1697743579636,0.4403286292,0.7438716635199997,-0.01429683,0.01235339,-0.02642646
2023-12-21 07:22:23.046000128,-0.04559687,-0.001299553,-0.005944089,0.008874685,-0.07579398,0.04878777,0.0113322,0.001154232,-0.01482256,0.1811065579636,0.4414828611999999,0.7290491035199996,-0.01418043,0.01239034,-0.02660568
2023-12-21 07:22:23.060000000,-0.0455853,-0.0008251444,-0.006203648,0.00154456,-0.07175666,0.04505056,0.009776164,0.000782809,-0.01590731,0.1908827219636,0.4422656701999999,0.7131417935199996,-0.01409114,0.0124255,-0.02681765
2023-12-21 07:22:23.073999872,-0.04552579,-0.000301186,-0.006516103,-0.00366826,-0.06724931,0.04466989,0.007945194,7.608364e-05,-0.01666377,0.1988279159636,0.4423417538399999,0.6964780235199997,-0.01403615,0.01244663,-0.02702695
2023-12-21 07:22:23.088000000,-0.0454448,2.297014e-05,-0.006446214,-0.006708104,-0.06470327,0.03640478,0.005951586,-0.0001472612,-0.01691546,0.2047795019636,0.4421944926399999,0.6795625635199997,-0.01400566,0.01243183,-0.02722525
2023-12-21 07:22:23.101999872,-0.04546795,0.0001904555,-0.006600089,-1.839425e-05,-0.05295134,0.02977773,0.004137886,-0.0001757479,-0.01643328,0.2089173879636,0.4420187447399999,0.6631292835199997,-0.0139928,0.01243357,-0.02740537
2023-12-21 07:22:23.116000000,-0.04568981,0.0001978725,-0.006605937,0.004626279,-0.0391911,0.01808855,0.002022529,-0.000100634,-0.01575933,0.2109399169636,0.4419181107399999,0.6473699535199997,-0.01402015,0.01243586,-0.02758491
2023-12-21 07:22:23.130000128,-0.04544678,0.0002188347,-0.006512605,0.001851187,-0.02440489,0.01404295,4.532759e-05,-0.001221874,-0.0154034,0.2109852445536,0.4406962367399999,0.6319665535199998,-0.01407164,0.01238901,-0.02776644
2023-12-21 07:22:23.144000000,-0.04494917,-6.452203e-06,-0.006602778,-0.01789074,-0.00618293,0.01157375,-0.001583755,-0.003578851,-0.01527666,0.2094014895536,0.4371173857399999,0.6166898935199997,-0.01413586,0.0122851,-0.02796671
2023-12-21 07:22:23.157999872,-0.04433298,-0.0001002699,-0.006863157,-0.04207382,0.004813683,0.01437105,-0.002985935,-0.006540634,-0.01589901,0.2064155545536,0.4305767517399999,0.6007908835199997,-0.01421796,0.0121169,-0.02818019
2023-12-21 07:22:23.172000000,-0.04359789,-0.0002625361,-0.006974069,-0.06531689,0.01089499,0.0141634,-0.004000506,-0.008415536,-0.01686264,0.2024150485536,0.4221612157399999,0.5839282435199996,-0.01430281,0.01194109,-0.02842075
2023-12-21 07:22:23.187000064,-0.04321647,-0.000333596,-0.007153329,-0.06309216,0.01448858,0.018066,-0.004492496,-0.00856963,-0.01756474,0.1979225525536,0.4135915857399999,0.5663635035199996,-0.01439225,0.01191843,-0.02867869
2023-12-21 07:22:23.198999808,-0.04324939,-0.0004202537,-0.007320029,-0.0481266,0.01654924,0.01636509,-0.004671836,-0.006948033,-0.01770318,0.1932507165536,0.4066435527399999,0.5486603235199996,-0.01443568,0.01180827,-0.02890842
2023-12-21 07:22:23.212999936,-0.04337723,-0.0005404875,-0.007386027,-0.0289993,0.01598147,0.01640951,-0.004845936,-0.004689459,-0.01760042,0.1884047805536,0.4019540937399999,0.5310599035199997,-0.01450564,0.01181893,-0.02913835
2023-12-21 07:22:23.228000000,-0.04351705,-0.0007627644,-0.007419541,-0.01197003,0.01602926,0.01330705,-0.005319958,-0.002801917,-0.01761601,0.1830848225536,0.3991521767399999,0.5134438935199996,-0.01460415,0.0118229,-0.0293804
2023-12-21 07:22:23.240999936,-0.04348605,-0.0007853359,-0.007493791,-0.002365194,0.0162937,0.01020364,-0.005833464,-0.001444472,-0.01769318,0.1772513585536,0.3977077047399999,0.4957507135199996,-0.01470945,0.01183412,-0.02961208
2023-12-21 07:22:23.255000064,-0.04340856,-0.001043174,-0.007605923,0.0009658042,0.02008528,0.00657723,-0.006314964,-0.001168803,-0.01789822,0.1709363945536,0.3965389017399999,0.4778524935199996,-0.0148128,0.01182313,-0.02987316
2023-12-21 07:22:23.268999936,-0.04333417,-0.00133865,-0.007626467,-0.004126091,0.02844733,0.009089952,-0.006589177,-0.001461582,-0.01803485,0.1643472175536,0.3950773197399999,0.4598176435199996,-0.01491615,0.01178523,-0.03013532
2023-12-21 07:22:23.283000064,-0.04337327,-0.001605552,-0.007765603,-0.003999047,0.03264169,0.00982473,-0.007278263,-0.001933984,-0.01818575,0.1570689545536,0.3931433357399999,0.4416318935199996,-0.01503998,0.01174413,-0.03040132
2023-12-21 07:22:23.296999936,-0.04334974,-0.001839757,-0.008070156,-0.002815159,0.0371034,0.01497116,-0.007895336,-0.001586895,-0.018308,0.1491736185536,0.3915564407399999,0.4233238935199996,-0.01520272,0.01178119,-0.0306651
2023-12-21 07:22:23.311000064,-0.04361448,-0.00230439,-0.008355861,0.00593678,0.0457111,0.01984741,-0.008214643,-0.001360529,-0.01823127,0.1409589755536,0.3901959117399999,0.4050926235199996,-0.01530351,0.01173945,-0.03092957
2023-12-21 07:22:23.324999936,-0.04350455,-0.002681613,-0.008635317,0.004979134,0.04955394,0.02270967,-0.008514536,-0.001389236,-0.01827802,0.1324444395536,0.3888066757399999,0.3868146035199996,-0.01543159,0.01172626,-0.03121739
2023-12-21 07:22:23.339000064,-0.04338785,-0.00304392,-0.008830332,0.00183454,0.05309974,0.02764312,-0.008771715,-0.002388875,-0.01865505,0.1236727245536,0.3864178007399999,0.3681595535199996,-0.01559131,0.0116793,-0.03148809
2023-12-21 07:22:23.352999936,-0.04299618,-0.003330059,-0.009277581,-0.01527501,0.05322867,0.03604807,-0.009076526,-0.003478253,-0.01862533,0.1145961985536,0.3829395477399999,0.3495342235199996,-0.01574477,0.01162483,-0.03173928
2023-12-21 07:22:23.367000064,-0.04287256,-0.003785755,-0.009441308,-0.02047185,0.05693954,0.03441554,-0.008814631,-0.004919125,-0.01805474,0.1057815675536,0.3780204227399999,0.3314794835199996,-0.01586477,0.01151669,-0.03195579
2023-12-21 07:22:23.380999936,-0.04259734,-0.004129436,-0.009614065,-0.02675185,0.0579146,0.03012705,-0.008419234,-0.00593639,-0.01691609,0.0973623335536,0.3720840327399999,0.3145633935199996,-0.01599163,0.01144341,-0.03221659
2023-12-21 07:22:23.395000064,-0.04246507,-0.004379965,-0.01026081,-0.034355,0.05570001,0.03818341,-0.008060786,-0.006664379,-0.01591556,0.0893015475536,0.3654196537399999,0.2986478335199996,-0.01611157,0.01139031,-0.03241718
2023-12-21 07:22:23.408000000,-0.04184871,-0.004311331,-0.01111533,-0.04267711,0.04371472,0.06410573,-0.007481345,-0.007275314,-0.01525143,0.0818202025536,0.3581443397399999,0.2833964035199996,-0.01621666,0.01134552,-0.03259525
2023-12-21 07:22:23.423000064,-0.04146774,-0.004255857,-0.0114444,-0.0529773,0.02895407,0.06984019,-0.006328092,-0.007349954,-0.01493807,0.0754921105536,0.3507943857399999,0.2684583335199996,-0.01627683,0.01126142,-0.03277389
2023-12-21 07:22:23.436999936,-0.04091321,-0.004166648,-0.01195462,-0.06082623,0.01860741,0.06884019,-0.005129058,-0.006826878,-0.0147992,0.0703630525536,0.3439675077399999,0.2536591335199996,-0.01631622,0.01121027,-0.03295525
2023-12-21 07:22:23.451000064,-0.04057359,-0.004129682,-0.01222724,-0.05773871,0.01164132,0.05895049,-0.004414653,-0.005960607,-0.01467479,0.0659483995536,0.3380069007399999,0.2389843435199996,-0.01637719,0.01116536,-0.03314562
2023-12-21 07:22:23.464999936,-0.04049,-0.004146174,-0.01251474,-0.04933728,0.006181214,0.05162919,-0.003800062,-0.004664631,-0.0144577,0.0621483375536,0.33334226974,0.2245266435199996,-0.01644474,0.01114885,-0.03334027
2023-12-21 07:22:23.477999872,-0.04063227,-0.004129425,-0.01257057,-0.02588305,0.001152141,0.03831978,-0.003188988,-0.003294488,-0.01408638,0.0589593495536,0.33004778174,0.2104402635199996,-0.01649813,0.01113959,-0.03351861
2023-12-21 07:22:23.492000000,-0.04091044,-0.003806382,-0.01258857,-0.00260382,-0.007421545,0.02652508,-0.002806538,-0.001388705,-0.01365641,0.0561528115536,0.32865907674,0.1967838535199995,-0.01652826,0.01117184,-0.03364687
2023-12-21 07:22:23.506000128,-0.04141235,-0.00379964,-0.01243704,0.02073823,-0.01239964,0.01865603,-0.002481816,0.0005807501,-0.01302009,0.0536709955536,0.32923982684,0.1837637635199995,-0.01655514,0.01122217,-0.03378285
2023-12-21 07:22:23.520000000,-0.04198946,-0.003746569,-0.01231067,0.04433821,-0.01499343,0.003643764,-0.0023002,0.002134391,-0.01235195,0.0513707955536,0.33137421784,0.1714118135199995,-0.01659561,0.01129433,-0.03391083
2023-12-21 07:22:23.533999872,-0.04241242,-0.003639415,-0.01220293,0.05506265,-0.01558411,-0.001602792,-0.002220875,0.003098915,-0.01188503,0.0491499205536,0.33447313284,0.1595267835199995,-0.01664137,0.01136827,-0.03403442
2023-12-21 07:22:23.548000000,-0.04268044,-0.00360078,-0.01224987,0.04964051,-0.01676141,0.0002157718,-0.002285368,0.003024576,-0.01188551,0.0468645525536,0.33749770884,0.1476412735199996,-0.01668681,0.01141904,-0.03418035
2023-12-21 07:22:23.562000128,-0.04270772,-0.003336336,-0.01233981,0.03786762,-0.01677329,0.003119388,-0.002481141,0.002163387,-0.01231047,0.0443834115536,0.33966109584,0.1353308035199996,-0.01673638,0.01143411,-0.03432901
2023-12-21 07:22:23.576000000,-0.04259941,-0.003334992,-0.01218163,0.02197258,-0.01511289,0.004080034,-0.002624326,0.001276675,-0.01270628,0.0417590855536,0.34093777084,0.1226245235199996,-0.01678787,0.01141997,-0.03449642
2023-12-21 07:22:23.591000064,-0.04284536,-0.003325306,-0.01208548,0.018005,-0.01081135,-0.0006635843,-0.002902934,0.0007117909,-0.01270748,0.0388561515536,0.34164956174,0.1099170435199995,-0.01686483,0.01139357,-0.03466473
2023-12-21 07:22:23.604000000,-0.04302162,-0.003571533,-0.01195491,0.01851056,-0.003015814,-0.007913364,-0.00307842,0.001308415,-0.01218339,0.0357777315536,0.34295797674,0.0977336535199995,-0.01693936,0.01140219,-0.03482719
2023-12-21 07:22:23.618000128,-0.04349152,-0.003711365,-0.01204847,0.03279107,0.006101045,-0.00806812,-0.003152128,0.001960901,-0.01115698,0.0326256035536,0.3449188777400001,0.0865766735199995,-0.01698952,0.01144511,-0.03495027
2023-12-21 07:22:23.631000064,-0.04364779,-0.003679097,-0.01236659,0.03893141,0.007153582,0.008552778,-0.003601074,0.00282097,-0.0103035,0.0290245295536,0.34773984774,0.0762731735199996,-0.01704188,0.01152715,-0.03504842
2023-12-21 07:22:23.645999872,-0.04394664,-0.003758114,-0.01233938,0.0379173,0.009815233,0.01224482,-0.003617895,0.003097965,-0.00972475,0.0254066345536,0.35083781274,0.0665484235199996,-0.01708785,0.01158509,-0.03515084
2023-12-21 07:22:23.658999808,-0.0439299,-0.003982361,-0.01243911,0.03278364,0.01271296,0.009391683,-0.003630696,0.002867524,-0.009406937,0.0217759385536,0.35370533674,0.0571414865199995,-0.01714214,0.01166592,-0.03525316
2023-12-21 07:22:23.674000128,-0.04403431,-0.003986485,-0.0124698,0.02329878,0.0128734,0.004809252,-0.003735017,0.002400289,-0.009335948,0.0180409215536,0.35610562574,0.0478055385199995,-0.01720081,0.01172684,-0.03535048
2023-12-21 07:22:23.687000064,-0.04415943,-0.004154135,-0.0124555,0.01911878,0.01277504,0.0003403148,-0.003721407,0.002018914,-0.009328158,0.0143195145536,0.35812453974,0.0384773805199995,-0.01724984,0.01175497,-0.03546371
2023-12-21 07:22:23.700999936,-0.04421933,-0.004124645,-0.01232516,0.0159069,0.01052745,-0.00448627,-0.00365806,0.001989039,-0.009299769,0.0106614545536,0.36011357874,0.0291776115199995,-0.01729745,0.011781,-0.03556365
2023-12-21 07:22:23.714999808,-0.04439679,-0.004140042,-0.01216531,0.01900882,0.006050662,-0.01059847,-0.003902984,0.001844281,-0.009395269,0.0067584705536,0.36195785974,0.0197823425199995,-0.01735998,0.01180384,-0.03567292
2023-12-21 07:22:23.729000192,-0.04437132,-0.0042108,-0.01200066,0.01483434,0.007496957,-0.0115497,-0.00392406,0.001937981,-0.009282302,0.0028344105536,0.36389584074,0.0105000405199995,-0.01743434,0.01183583,-0.03578015
2023-12-21 07:22:23.743000064,-0.0444882,-0.004342303,-0.01196586,0.01698867,0.007576165,-0.01255505,-0.004151078,0.001239913,-0.009298254,-0.0013166674463999,0.36513575374,0.0012017865199995,-0.01751574,0.01184626,-0.03589232
2023-12-21 07:22:23.756999936,-0.04459411,-0.004408155,-0.01194226,0.01178418,0.01078856,-0.01106989,-0.004363842,0.0003632965,-0.009081278,-0.0056805094463999,0.36549905024,-0.0078794914800004,-0.01758494,0.01182027,-0.03598938
2023-12-21 07:22:23.770999808,-0.04458132,-0.004456338,-0.01191011,0.005334906,0.009863519,-0.01033339,-0.004836296,-0.0002541354,-0.008721067,-0.0105168054463999,0.36524491484,-0.0166005584800004,-0.01766702,0.01178696,-0.03607948
2023-12-21 07:22:23.785000192,-0.0445819,-0.004547674,-0.0119449,0.005243904,0.01086918,-0.003659011,-0.005018734,-0.001073162,-0.008335354,-0.0155355394463999,0.36417175284,-0.0249359124800004,-0.01775963,0.01174978,-0.03616241
2023-12-21 07:22:23.799000064,-0.04451168,-0.004616898,-0.01196498,-0.0001292166,0.01075899,-0.001668693,-0.005239394,-0.001358306,-0.007891087,-0.0207749334463999,0.36281344684,-0.0328269994800004,-0.01786544,0.01171717,-0.03623664
2023-12-21 07:22:23.813999872,-0.04446692,-0.004730981,-0.01199113,-0.002198298,0.01277691,-0.0003003035,-0.005345795,-0.001789927,-0.007382808,-0.0261207284463999,0.36102351984,-0.0402098074800004,-0.01796257,0.01167635,-0.03630407
2023-12-21 07:22:23.826999808,-0.04445706,-0.004815899,-0.01202073,-0.00116787,0.01254499,0.0007751589,-0.005354192,-0.002185668,-0.006737848,-0.0314749204463999,0.35883785184,-0.0469476554800004,-0.01803583,0.01163674,-0.03634975
2023-12-21 07:22:23.840000000,-0.04441715,-0.004913963,-0.01198852,-0.002165789,0.01295855,-0.001351059,-0.00539948,-0.002042983,-0.006015259,-0.0368744004463999,0.35679486884,-0.0529629144800004,-0.01811127,0.01160912,-0.03638655
2023-12-21 07:22:23.855000064,-0.0444198,-0.004991651,-0.01192114,-0.001053351,0.01240381,-0.004661527,-0.005437418,-0.002057857,-0.00528097,-0.0423118184463999,0.35473701184,-0.0582438844800004,-0.0181945,0.01159704,-0.03641196
2023-12-21 07:22:23.868999936,-0.04432679,-0.005037852,-0.01186556,-0.005358513,0.01069011,-0.006175328,-0.005499209,-0.002030554,-0.004513898,-0.0478110274463999,0.35270645784,-0.0627577824800004,-0.01828133,0.01159237,-0.03642104
2023-12-21 07:22:23.882999808,-0.04425397,-0.00512984,-0.01176561,-0.007386742,0.01133614,-0.009378544,-0.005489739,-0.00203103,-0.003753437,-0.0533007664463999,0.35067542784,-0.0665112194800004,-0.01835896,0.01156871,-0.0364301
2023-12-21 07:22:23.896000000,-0.04419721,-0.005222436,-0.01167074,-0.007319795,0.01170047,-0.01148115,-0.005468408,-0.002080456,-0.002751755,-0.0587691744463999,0.34859497184,-0.0692629744800004,-0.01842504,0.01152907,-0.03641365
2023-12-21 07:22:23.910000128,-0.04416169,-0.005276345,-0.01157265,-0.006314803,0.009738079,-0.01287056,-0.005576288,-0.001936368,-0.001713885,-0.0643454624463999,0.3466586038399999,-0.0709768594800004,-0.01849627,0.01149877,-0.03637787
2023-12-21 07:22:23.924000000,-0.0442288,-0.005407061,-0.01151779,0.0001886776,0.01258835,-0.01216649,-0.005337547,-0.001301059,-0.0008032661,-0.0696830094463999,0.34535754484,-0.0717801255800004,-0.01856989,0.01152737,-0.03634463
2023-12-21 07:22:23.937999872,-0.04434745,-0.00551701,-0.0114364,0.006639006,0.01352605,-0.01287864,-0.005321707,-1.259503e-05,0.0004018894,-0.0750047164463999,0.3453449498099999,-0.0713782361800004,-0.01865073,0.01158886,-0.03628673
2023-12-21 07:22:23.952000000,-0.04456732,-0.005617127,-0.01131809,0.01193364,0.01241714,-0.01398654,-0.005153398,0.001040397,0.00140312,-0.0801581144463999,0.34638534681,-0.0699751161800004,-0.01871607,0.01162049,-0.03621242
2023-12-21 07:22:23.967000064,-0.04475049,-0.005768783,-0.01123272,0.01728356,0.01235746,-0.01490041,-0.004975215,0.001532034,0.002439503,-0.0851333294463999,0.34791738081,-0.0675356131800004,-0.01877473,0.0116368,-0.03612303
2023-12-21 07:22:23.980000000,-0.04474138,-0.005790923,-0.011193,0.01414612,0.01441888,-0.01357048,-0.004708796,0.00167174,0.00355216,-0.0898421254463999,0.34958912081,-0.0639834531800004,-0.01883565,0.01165167,-0.03601705
2023-12-21 07:22:23.993999872,-0.04463942,-0.005974378,-0.01106706,0.00773113,0.01279206,-0.01514332,-0.004654886,0.001092911,0.004442407,-0.0944970114463999,0.3506820318099999,-0.0595410461800004,-0.01892874,0.01163724,-0.03591893
2023-12-21 07:22:24.008000000,-0.04451193,-0.006010938,-0.01096546,-0.005095087,0.0121204,-0.01461461,-0.004436858,-0.0001639525,0.005357327,-0.0989338694463999,0.3505180793099999,-0.0541837191800004,-0.0190126,0.01159047,-0.03579822
2023-12-21 07:22:24.022000128,-0.0440349,-0.006208915,-0.01090152,-0.0210597,0.01350839,-0.01275721,-0.003898839,-0.001897018,0.006355725,-0.1028327084463999,0.34862106131,-0.0478279941800004,-0.01905982,0.01151576,-0.03566373
2023-12-21 07:22:24.036000000,-0.04377245,-0.006233029,-0.01078591,-0.03157521,0.01451309,-0.01619517,-0.003379488,-0.003177824,0.007165637,-0.1062121964463999,0.34544323731,-0.0406623571800004,-0.01909582,0.01143166,-0.03551686
2023-12-21 07:22:24.049999872,-0.04357463,-0.006275374,-0.01065504,-0.03165414,0.01327308,-0.01532057,-0.002810496,-0.003292518,0.007808749,-0.1090226924463999,0.3421507193099999,-0.0328536081800004,-0.01913083,0.01137516,-0.03537307
2023-12-21 07:22:24.064000000,-0.04358722,-0.006188054,-0.01068967,-0.02342289,0.007312123,-0.01390329,-0.002520544,-0.00288691,0.008573702,-0.1115432364463999,0.3392638093099999,-0.0242799061800004,-0.01918884,0.0113521,-0.03520119
2023-12-21 07:22:24.076999936,-0.04370347,-0.00650334,-0.01018051,-0.01136374,0.008639272,-0.02410238,-0.001737625,-0.002010753,0.009435566,-0.1132808614463999,0.3372530563099999,-0.0148443401800004,-0.01922728,0.01131931,-0.0350331
2023-12-21 07:22:24.091000064,-0.04375981,-0.006584864,-0.01014706,-0.0004760513,0.01209473,-0.02744454,-0.001086452,-0.001880122,0.01066695,-0.1143673134463999,0.33537293431,-0.0041773901800004,-0.01922817,0.0112883,-0.03482626
2023-12-21 07:22:24.104999936,-0.04356203,-0.006527729,-0.01012111,-0.005033314,0.009938293,-0.02038945,-0.0008969533,-0.002053702,0.01118694,-0.1152642667463999,0.33331923231,0.0070095498199995,-0.01923791,0.01125004,-0.03462286
2023-12-21 07:22:24.119000064,-0.04338481,-0.006625149,-0.01026911,-0.01409991,0.009225719,-0.002400032,-0.0004355644,-0.003154765,0.01156285,-0.1156998311463999,0.33016446731,0.0185723998199995,-0.01924675,0.01121054,-0.03442787
2023-12-21 07:22:24.132000000,-0.04269705,-0.006648138,-0.01055224,-0.03458131,0.007708392,0.004186202,-8.089113e-05,-0.004252189,0.01138541,-0.1157807222763999,0.3259122783099999,0.0299578098199995,-0.01925988,0.01117571,-0.03424235
2023-12-21 07:22:24.145999872,-0.0419735,-0.006692778,-0.01027436,-0.05659758,0.01180095,-0.002369147,0.0004989406,-0.005062861,0.01088543,-0.1152817816763999,0.32084941731,0.0408432398199995,-0.01925353,0.01109079,-0.03407092
2023-12-21 07:22:24.160000000,-0.04172818,-0.006911401,-0.01015843,-0.06171497,0.01294777,-0.007813363,0.0005923713,-0.005698802,0.01047494,-0.1146894103763999,0.31515061531,0.0513181798199995,-0.01923889,0.01098469,-0.03390867
2023-12-21 07:22:24.174000128,-0.04148126,-0.00688285,-0.01021951,-0.05307875,0.01766958,-0.005514994,0.0009534066,-0.005469678,0.01039641,-0.1137360037763999,0.30968093731,0.0617145898199995,-0.01921303,0.01091464,-0.0337269
2023-12-21 07:22:24.188000000,-0.0414824,-0.006958216,-0.01015518,-0.037096,0.01636635,-0.007337158,0.001210724,-0.004795007,0.01035139,-0.1125252797763999,0.30488593031,0.0720659798199995,-0.01921096,0.01086525,-0.03357018
2023-12-21 07:22:24.201999872,-0.04140693,-0.007203769,-0.01009955,-0.02548423,0.01465739,-0.006146905,0.001640047,-0.003913764,0.01036168,-0.1108852327763999,0.30097216631,0.0824276598199995,-0.01920008,0.01083356,-0.03342367
2023-12-21 07:22:24.216000000,-0.0414622,-0.007294979,-0.01012526,-0.01057188,0.01426764,-0.006737605,0.001858147,-0.003634845,0.01026604,-0.1090270857763999,0.29733732131,0.0926936998199995,-0.01918347,0.01079319,-0.03326891
2023-12-21 07:22:24.230000128,-0.0415639,-0.007403646,-0.01008257,-0.001011905,0.0138887,-0.006439257,0.001943236,-0.003665169,0.01022835,-0.1070838497763999,0.29367215231,0.1029220498199995,-0.01916117,0.0107388,-0.03310245
2023-12-21 07:22:24.243000064,-0.04172126,-0.007609572,-0.009895451,0.00251406,0.01891495,-0.01081106,0.002355963,-0.003436823,0.01053791,-0.1047278867763999,0.29023532931,0.1134599598199995,-0.01912584,0.01068634,-0.0329285
2023-12-21 07:22:24.256999936,-0.04167738,-0.00773222,-0.01000175,0.004436886,0.01786741,-0.005489854,0.002503412,-0.003310418,0.01057703,-0.1022244747763999,0.28692491131,0.1240369898199995,-0.01910353,0.01067318,-0.03276015
2023-12-21 07:22:24.270999808,-0.04164295,-0.007885884,-0.01006146,0.00119295,0.01950423,-0.002058076,0.002693816,-0.002980806,0.0104539,-0.0995306587763999,0.28394410531,0.1344908898199995,-0.01907649,0.0106674,-0.03259944
2023-12-21 07:22:24.285000192,-0.0413507,-0.008008469,-0.01018183,-0.007561054,0.01867422,0.003961278,0.002792387,-0.002692122,0.01008965,-0.0967382717763999,0.28125198331,0.1445805398199995,-0.01904678,0.01065638,-0.03245167
2023-12-21 07:22:24.299000064,-0.04127191,-0.008210413,-0.01008651,-0.01149719,0.02294836,-0.0008455374,0.003057573,-0.00258653,0.009933761,-0.0936806987763999,0.27866545331,0.1545143008199995,-0.0190077,0.01062335,-0.03230826
2023-12-21 07:22:24.312999936,-0.04104,-0.008561939,-0.009902986,-0.01634532,0.02699592,-0.01007369,0.003100911,-0.001838624,0.009817417,-0.0905797877764,0.27682682931,0.1643317178199995,-0.01897636,0.01061,-0.03217692
2023-12-21 07:22:24.326999808,-0.04125765,-0.008774336,-0.009917633,-0.008618827,0.03062306,-0.01343754,0.003218698,-0.0008000802,0.00992887,-0.0873610897763999,0.27602674911,0.1742605878199995,-0.01896292,0.01063716,-0.03203391
2023-12-21 07:22:24.342000128,-0.04135904,-0.00894814,-0.01014741,-0.001644456,0.02924308,-0.001440379,0.003166161,0.001047023,0.01022125,-0.0841949287763999,0.27707377211,0.1844818378199995,-0.01895127,0.01072264,-0.03188032
2023-12-21 07:22:24.355000064,-0.04146025,-0.009107083,-0.01003694,0.01212668,0.02956662,0.0003283158,0.003334248,0.00310292,0.01063328,-0.0808606807763999,0.28017669211,0.1951151178199995,-0.01890318,0.01081336,-0.03170168
2023-12-21 07:22:24.368000000,-0.04176661,-0.009313315,-0.01002917,0.02174922,0.02854098,-0.001609023,0.003510005,0.004839664,0.01082413,-0.0773506757764,0.28501635611,0.2059392478199995,-0.01884522,0.01092567,-0.03153174
2023-12-21 07:22:24.381999872,-0.04205431,-0.009637024,-0.0101291,0.02612794,0.03065038,-0.002098092,0.003780099,0.00624774,0.01101307,-0.0735705767764,0.29126409611,0.2169523178199995,-0.01879479,0.01105913,-0.03137412
2023-12-21 07:22:24.396000000,-0.04221071,-0.00984684,-0.009983231,0.02936792,0.02987966,-0.004254203,0.003947216,0.007017015,0.01090027,-0.0696233607764,0.29828111111,0.2278525878199995,-0.0187635,0.01117606,-0.03122615
2023-12-21 07:22:24.410000128,-0.04246262,-0.009995963,-0.009956349,0.03250965,0.026806,-0.005756916,0.004232309,0.00738613,0.01078079,-0.0653910517763999,0.30566724111,0.2386333778199995,-0.0187238,0.01129524,-0.03107521
2023-12-21 07:22:24.424000000,-0.0427018,-0.01007863,-0.009940905,0.03337528,0.02324276,-0.004198184,0.004504492,0.007461078,0.01106721,-0.0608865597763999,0.31312831911,0.2497005878199995,-0.01866223,0.01139795,-0.03089956
2023-12-21 07:22:24.438999808,-0.04287963,-0.01012975,-0.009940639,0.03510686,0.01612227,-0.00105374,0.0046583,0.006763141,0.01128691,-0.0562282597763999,0.31989146011,0.2609874978199995,-0.01860134,0.01147274,-0.03072064
2023-12-21 07:22:24.452000000,-0.04312139,-0.01000605,-0.0099045,0.03052938,0.006665017,-0.001911046,0.004849051,0.005631238,0.0118243,-0.0513792087763999,0.32552269811,0.2728117978199995,-0.01853359,0.01152624,-0.03052471
2023-12-21 07:22:24.464999936,-0.04311071,-0.0099537,-0.009971517,0.02271524,0.00181026,0.002263326,0.005426531,0.004372578,0.01240744,-0.0459526777764,0.32989527611,0.2852192378199995,-0.01845638,0.01158595,-0.03031032
2023-12-21 07:22:24.479000064,-0.04325215,-0.009847783,-0.009889933,0.01824179,-0.007269095,-0.0006665896,0.005731456,0.003750815,0.01287428,-0.0402212217763999,0.33364609111,0.2980935178199995,-0.01838787,0.01164956,-0.0300782
2023-12-21 07:22:24.492999936,-0.04340043,-0.009534478,-0.0100497,0.01892571,-0.01521724,0.001200012,0.006074178,0.003521889,0.01321221,-0.0341470437763999,0.33716798011,0.3113057278199995,-0.01830137,0.01170027,-0.02984105
2023-12-21 07:22:24.507000064,-0.04351438,-0.009373005,-0.009830035,0.01881548,-0.01939373,0.0004471204,0.006370406,0.003412302,0.0132097,-0.0277766377763999,0.34058028211,0.3245154278199995,-0.01821415,0.01172987,-0.02962296
2023-12-21 07:22:24.520999936,-0.04342607,-0.009150371,-0.009880258,0.007783197,-0.02708404,0.002896562,0.006390641,0.003272308,0.01273661,-0.0213859967763999,0.34385259011,0.3372520378199995,-0.01815458,0.01176278,-0.02944204
2023-12-21 07:22:24.536000000,-0.04338291,-0.008899562,-0.009823392,0.0002775494,-0.03081092,0.000800344,0.006168835,0.002570715,0.01194278,-0.0152171617763999,0.34642330511,0.3491948178199995,-0.01810403,0.01176316,-0.02928235
2023-12-21 07:22:24.549999872,-0.04326732,-0.008594017,-0.009818099,-0.006148531,-0.03352951,-0.001063147,0.005776669,0.001936085,0.01122838,-0.0094404927763999,0.34835939011,0.3604231978199995,-0.01804615,0.01176605,-0.02911018
2023-12-21 07:22:24.564000000,-0.04324524,-0.008400083,-0.009775512,-0.008424095,-0.0359195,0.0005862793,0.005346328,0.00152388,0.01079134,-0.0040941647763999,0.34988327011,0.3712145378199994,-0.01797765,0.0117715,-0.02892703
2023-12-21 07:22:24.576999936,-0.0433086,-0.008258842,-0.009776022,-0.00406283,-0.03102637,0.002741787,0.005200282,0.001406237,0.01077388,0.0011061172236,0.3512895071099999,0.3819884178199995,-0.01790555,0.01178645,-0.02873961
2023-12-21 07:22:24.592000000,-0.04352445,-0.007987924,-0.009761084,0.007622972,-0.03146213,0.003177358,0.004413327,0.001660587,0.01066002,0.0055194442236,0.3529500941099999,0.3926484378199995,-0.01787498,0.01184526,-0.02853797
2023-12-21 07:22:24.605999872,-0.04376362,-0.007782519,-0.009822426,0.0184533,-0.02730137,0.002200872,0.003782741,0.002391324,0.01068008,0.0093021852236,0.3553414181099999,0.4033285178199994,-0.01784843,0.01193079,-0.02833592
2023-12-21 07:22:24.620000000,-0.04403104,-0.007692661,-0.009832954,0.02498174,-0.02594496,-0.0005321295,0.003019004,0.002706482,0.01042548,0.0123211892236,0.3580479001099999,0.4137539978199994,-0.01783287,0.0119787,-0.02816636
2023-12-21 07:22:24.632999936,-0.04399262,-0.007612135,-0.009790479,0.02188722,-0.02181099,0.001138234,0.002399039,0.002298607,0.009905485,0.0147202282236,0.3603465071099999,0.4236594828199994,-0.01782173,0.0119891,-0.02801743
2023-12-21 07:22:24.648000000,-0.04393719,-0.00749616,-0.009661726,0.01033129,-0.01995258,-0.001175,0.001749012,0.001291797,0.009099519,0.0164692402236,0.3616383041099999,0.4327590018199994,-0.01782355,0.01197273,-0.02788614
2023-12-21 07:22:24.661999872,-0.04390088,-0.007403072,-0.009589876,0.00104393,-0.0165794,-0.006375225,0.001325409,-5.955056e-05,0.008134985,0.0177946492236,0.3615787535499999,0.4408939868199994,-0.0178335,0.01194945,-0.02777341
2023-12-21 07:22:24.675000064,-0.04359961,-0.007278424,-0.009565664,-0.01178677,-0.01647075,-0.004699626,0.0007220862,-0.000993726,0.007293799,0.0185167354236,0.3605850275499999,0.4481877858199994,-0.01785587,0.01192527,-0.02766763
2023-12-21 07:22:24.688999936,-0.0434977,-0.007174384,-0.009428078,-0.01691159,-0.0136277,-0.007646396,0.000390176,-0.001467274,0.006791466,0.0189069114236,0.3591177535499999,0.4549792518199994,-0.01785715,0.01186893,-0.02754992
2023-12-21 07:22:24.703000064,-0.04345951,-0.007169314,-0.009454276,-0.01043556,-0.01157595,-0.008126208,0.0001955092,-0.001581072,0.00642758,0.0191024206236,0.3575366815499999,0.4614068318199994,-0.01785518,0.01182738,-0.02744244
2023-12-21 07:22:24.716999936,-0.04352032,-0.007132646,-0.009389173,-0.002890971,-0.009571046,-0.008567975,-4.109804e-05,-0.001198788,0.006422686,0.0190613225836,0.3563378935499999,0.4678295178199994,-0.01786248,0.01181872,-0.02733732
2023-12-21 07:22:24.731000064,-0.04360433,-0.007090542,-0.009306145,0.00249284,-0.008532628,-0.009264502,-0.0003842452,-0.0008489206,0.006360616,0.0186770773836,0.3554889729499998,0.4741901338199994,-0.0178817,0.01182686,-0.02723835
2023-12-21 07:22:24.744999936,-0.04368394,-0.007025078,-0.009226041,0.005644367,-0.009697706,-0.009350677,-0.0008238938,-0.0004671759,0.006116724,0.0178531835836,0.3550217970499998,0.4803068578199994,-0.01790705,0.0118384,-0.02714287
2023-12-21 07:22:24.759000064,-0.04374171,-0.007080279,-0.009191757,0.006894861,-0.003447097,-0.008201868,-0.0006527286,-0.000385661,0.006135585,0.0172004549836,0.3546361360499999,0.4864424428199994,-0.01790862,0.0118345,-0.0270262
2023-12-21 07:22:24.772000000,-0.04382137,-0.007059529,-0.008979244,0.009233382,-0.00432378,-0.01586245,-0.0008722496,-0.000103735,0.006344371,0.0163282053836,0.3545324010499999,0.4927868138199994,-0.01792374,0.01182953,-0.02689861
2023-12-21 07:22:24.787000064,-0.04396866,-0.007124163,-0.008916165,0.01356148,0.0003962388,-0.01270146,-0.0007466114,-3.407075e-05,0.006524556,0.0155815939836,0.3544983302999999,0.4993113698199994,-0.01793882,0.01183853,-0.02677936
2023-12-21 07:22:24.800000000,-0.04402288,-0.007075373,-0.008944485,0.01113238,-0.001868206,-0.005597007,-0.0008843166,6.273505e-06,0.006623568,0.0146972773836,0.3545046038049999,0.5059349378199994,-0.01796449,0.01185626,-0.02665777
2023-12-21 07:22:24.813999872,-0.04390541,-0.006939553,-0.009257936,-0.0002259309,-0.005859231,0.01280693,-0.0008269104,-0.0004415247,0.006209669,0.0138703669836,0.3540630791049999,0.5121446068199994,-0.01797492,0.01186759,-0.02654567
2023-12-21 07:22:24.828000000,-0.04343507,-0.006859951,-0.009460181,-0.01841094,-0.004916344,0.01664201,-0.0004461901,-0.001096124,0.005302764,0.0134241768836,0.3529669551049999,0.5174473708199994,-0.01796077,0.01185238,-0.02645417
2023-12-21 07:22:24.842000128,-0.0432114,-0.006816875,-0.009339085,-0.03097464,-0.007173855,0.007107414,-0.0006021587,-0.001373995,0.004305301,0.0128220181836,0.3515929601049999,0.5217526718199994,-0.01796313,0.01182126,-0.02638391
2023-12-21 07:22:24.856000000,-0.04300788,-0.006705083,-0.009290583,-0.03190589,-0.008303035,0.001455843,-0.0008609886,-0.001052461,0.003450722,0.0119610295836,0.3505404991049999,0.5252033938199994,-0.01797787,0.01181631,-0.02632549
2023-12-21 07:22:24.871000064,-0.04308225,-0.00668899,-0.009105292,-0.01999406,-0.006753824,-0.003259251,-0.0007631104,-0.0002944675,0.002672421,0.0111979191836,0.3502460316049999,0.5278758148199993,-0.01798391,0.01182416,-0.02628218
2023-12-21 07:22:24.884000000,-0.04314995,-0.006597228,-0.009073613,-0.003994582,-0.01057382,-0.008792764,-0.001148297,0.0008218046,0.002009781,0.0100496221836,0.3510678362049999,0.5298855958199994,-0.01800616,0.01186292,-0.02625057
2023-12-21 07:22:24.898000128,-0.04342329,-0.006532311,-0.009029686,0.01190512,-0.01132949,-0.007273784,-0.001600208,0.001949117,0.001498752,0.0084494141836,0.3530169532049999,0.5313843478199994,-0.01803362,0.01191669,-0.02622605
2023-12-21 07:22:24.912000000,-0.04383799,-0.006551631,-0.009016297,0.02265419,-0.006654788,-0.004972372,-0.001946377,0.00258944,0.0009385506,0.0065030371836,0.3556063932049998,0.5323228984199995,-0.01806332,0.01196925,-0.02622064
2023-12-21 07:22:24.926000128,-0.0440503,-0.006595261,-0.008969768,0.02826849,-0.0008631808,-0.008093769,-0.002214469,0.002449021,0.0002505519,0.0042885681836,0.3580554142049998,0.5325734503199995,-0.01809141,0.01199675,-0.02624358
2023-12-21 07:22:24.940000000,-0.04420612,-0.006708872,-0.008814937,0.02825714,0.0008816617,-0.00561311,-0.002667965,0.001886563,-0.000547598,0.0016206031836,0.3599419772049999,0.5320258523199994,-0.01813067,0.01199862,-0.02628391
2023-12-21 07:22:24.953999872,-0.04434704,-0.006789986,-0.008923264,0.02507428,0.004626635,-0.001813704,-0.003142018,0.0008022602,-0.001240228,-0.0015214148163999,0.3607442374049999,0.5307856243199994,-0.01818198,0.01199063,-0.02630772
2023-12-21 07:22:24.968000000,-0.04422521,-0.006832089,-0.008992596,0.01021615,0.007919411,0.0004022634,-0.003563679,0.0001102661,-0.001853292,-0.0050850938163999,0.3608545035049998,0.5289323323199995,-0.01823929,0.01197942,-0.02633008
2023-12-21 07:22:24.982000128,-0.04408732,-0.006911192,-0.009001287,-0.001433237,0.009372314,0.0002429457,-0.004115543,-0.0007389048,-0.002595565,-0.0092006368163999,0.3601155987049999,0.5263367673199995,-0.01830644,0.01194901,-0.0263794
2023-12-21 07:22:24.994999808,-0.04406513,-0.00709863,-0.0088907,-0.002071233,0.01506925,-0.00746188,-0.004405141,-0.001734352,-0.003052043,-0.0136057778163999,0.3583812467049999,0.5232847243199995,-0.01836945,0.01189777,-0.02644976
2023-12-21 07:22:25.008999936,-0.04402288,-0.007273685,-0.008759305,-0.001880991,0.01963047,-0.008825943,-0.004920367,-0.001888593,-0.00344116,-0.0185261448163999,0.3564926537049999,0.5198435643199995,-0.01844566,0.01186507,-0.02652274
2023-12-21 07:22:25.024000000,-0.04407209,-0.007498726,-0.00893295,0.0001248373,0.01987352,-0.004376904,-0.005458555,-0.001618556,-0.003208324,-0.0239846998163999,0.3548740977049999,0.5166352403199994,-0.01852376,0.01186627,-0.02654607
2023-12-21 07:22:25.036999936,-0.04409874,-0.007555671,-0.0089588,0.003110462,0.01884736,0.0009798696,-0.005901833,-0.001256396,-0.002998362,-0.0298865328163999,0.3536177017049999,0.5136368783199994,-0.01860587,0.01186434,-0.02655518
2023-12-21 07:22:25.051000064,-0.04420038,-0.007658429,-0.009018818,0.007259105,0.0172923,0.003034448,-0.006120477,-0.001425458,-0.002806542,-0.0360070098163999,0.3521922437049999,0.5108303363199994,-0.01869619,0.01184537,-0.02658526
2023-12-21 07:22:25.064999936,-0.04421604,-0.007701982,-0.009033934,0.005016676,0.01317112,0.002230022,-0.006413303,-0.001399647,-0.002518705,-0.0424203128163999,0.3507925967049999,0.5083116313199995,-0.01879957,0.01182546,-0.02661554
2023-12-21 07:22:25.078000128,-0.0443141,-0.007745612,-0.009070652,0.008102339,0.01078349,0.003018033,-0.006520717,-0.001635488,-0.00193755,-0.0489410298163999,0.3491571087049999,0.5063740813199995,-0.01889579,0.011799,-0.0266278
2023-12-21 07:22:25.092999936,-0.04442479,-0.00774353,-0.009084601,0.01115937,0.007345031,0.003623388,-0.006590538,-0.001838819,-0.00106099,-0.0555315678163999,0.3473182897049999,0.5053130913199995,-0.01897811,0.01177444,-0.02660964
2023-12-21 07:22:25.107000064,-0.04446903,-0.007674575,-0.008960802,0.009034306,0.0009899538,-0.002984715,-0.006916846,-0.001726741,-0.0001736112,-0.0624484138163999,0.3455915487049999,0.5051394801199994,-0.01907255,0.01175022,-0.02657525
2023-12-21 07:22:25.120999936,-0.0445089,-0.007553272,-0.008854387,0.006795043,-0.005917944,-0.006438743,-0.007343402,-0.002500213,0.0004591448,-0.0697918158164,0.3430913357049999,0.5055986249199994,-0.01918622,0.01168346,-0.02656318
2023-12-21 07:22:25.136000000,-0.04444328,-0.007465389,-0.008750932,0.0003746405,-0.008664262,-0.008247321,-0.007745342,-0.00379923,0.001029966,-0.0775371578164,0.3392921057049999,0.5066285909199995,-0.01930612,0.0115857,-0.0265542
2023-12-21 07:22:25.148999936,-0.04418172,-0.007412672,-0.008444661,-0.008950911,-0.01002453,-0.0175233,-0.008211105,-0.004720765,0.002094297,-0.0857482628164,0.3345713407049999,0.5087228879199994,-0.01943077,0.01147971,-0.02650764
2023-12-21 07:22:25.163000064,-0.04409363,-0.007334523,-0.008398858,-0.01104063,-0.009767877,-0.01864215,-0.00877827,-0.005624367,0.003299876,-0.0945265328164,0.3289469737049999,0.5120227639199995,-0.01955833,0.0113923,-0.02642016
2023-12-21 07:22:25.176000000,-0.04404482,-0.007403802,-0.008269959,-0.009927968,-0.006841741,-0.01700942,-0.009588839,-0.005856567,0.004530345,-0.1041153718164,0.3230904067049999,0.5165531089199995,-0.01970234,0.0113129,-0.02632356
2023-12-21 07:22:25.190000128,-0.04410838,-0.00761237,-0.008054212,-0.005148171,0.001819252,-0.02399223,-0.01034106,-0.005529063,0.005932309,-0.1144564318164,0.3175613437049999,0.5224854179199995,-0.01986542,0.01124446,-0.02623544
2023-12-21 07:22:25.204000000,-0.04410121,-0.00781595,-0.007885445,-0.003806528,0.01140544,-0.02335686,-0.01110543,-0.00507538,0.007396743,-0.1255618618164,0.3124859637049999,0.5298821609199995,-0.02003892,0.01118595,-0.02612494
2023-12-21 07:22:25.217999872,-0.04410266,-0.008024335,-0.007932202,-0.004781367,0.01928299,-0.01877066,-0.01190597,-0.005042668,0.00881426,-0.1374678318164,0.3074432957049999,0.5386964209199995,-0.02021507,0.01112183,-0.02597089
2023-12-21 07:22:25.231000064,-0.04387524,-0.0084466,-0.00782445,-0.009683734,0.03154082,-0.02007102,-0.01240205,-0.004995787,0.01005447,-0.1498698818163999,0.302447508705,0.5487508909199995,-0.0203855,0.01104413,-0.02580129
2023-12-21 07:22:25.246000128,-0.04364734,-0.008781247,-0.007922943,-0.01708377,0.04028985,-0.01340305,-0.01277739,-0.005010721,0.01122078,-0.1626472718163999,0.297436787705,0.5599716709199996,-0.02055933,0.01098453,-0.02561746
2023-12-21 07:22:25.260000000,-0.04328779,-0.009061396,-0.00800263,-0.02666223,0.04805246,-0.0069826,-0.01272922,-0.004545239,0.01233976,-0.1753764918163999,0.292891548705,0.5723114309199996,-0.02072418,0.01096714,-0.02543001
2023-12-21 07:22:25.272999936,-0.04300231,-0.009515099,-0.007992867,-0.03117338,0.04810297,-0.0006605916,-0.01267976,-0.004189554,0.01322041,-0.1880562518163999,0.288701994705,0.5855318409199995,-0.02088968,0.01094342,-0.02524749
2023-12-21 07:22:25.287000064,-0.04268482,-0.009768147,-0.008102527,-0.03774442,0.04459977,0.001684062,-0.01231498,-0.003048299,0.0142525,-0.2003712318164,0.285653695705,0.5997843409199995,-0.02104074,0.01094298,-0.02502911
2023-12-21 07:22:25.302000128,-0.04272445,-0.009814594,-0.008153696,-0.02935823,0.04101569,0.002501114,-0.01149428,-0.002139091,0.01538478,-0.2118655118163999,0.283514604705,0.6151691209199995,-0.02117064,0.01094301,-0.02477971
2023-12-21 07:22:25.316000000,-0.04265366,-0.009913243,-0.008204379,-0.018967,0.03022174,0.001047956,-0.01071171,-0.0008570132,0.01674256,-0.2225772218164,0.2826575915050001,0.6319116809199995,-0.02128883,0.01097384,-0.02451307
2023-12-21 07:22:25.328999936,-0.04271782,-0.009955183,-0.008103033,-0.0106627,0.01966862,-0.001553589,-0.009716657,0.0002700212,0.01817751,-0.2322938788163999,0.2829276127050001,0.6500891909199995,-0.02136127,0.01103668,-0.02418905
2023-12-21 07:22:25.342999808,-0.04273395,-0.009992477,-0.008133109,-0.002623144,0.007133115,0.000908901,-0.008741176,0.0003751668,0.01949588,-0.2410350548163999,0.2833027795050001,0.6695850709199995,-0.02144336,0.01104753,-0.02387948
2023-12-21 07:22:25.357000192,-0.04269227,-0.009877149,-0.008075136,-0.003843849,-0.002075685,-0.001890797,-0.007799807,0.0002791509,0.02090025,-0.2488348618163999,0.2835819304050001,0.6904853209199995,-0.02151131,0.01105188,-0.02352256
2023-12-21 07:22:25.371000064,-0.04260523,-0.009698514,-0.008077951,-0.00734078,-0.009879976,-0.0002018311,-0.006902757,-0.0001626649,0.02232874,-0.2557376188163999,0.2834192655050001,0.7128140609199994,-0.02157059,0.01104698,-0.02314939
2023-12-21 07:22:25.384999936,-0.04255626,-0.009369146,-0.008241969,-0.007824072,-0.01939181,0.004586462,-0.006414157,-0.001017881,0.0238764,-0.2621517758163999,0.2824013845050001,0.7366904609199995,-0.02165051,0.01098613,-0.02276086
2023-12-21 07:22:25.398999808,-0.0424785,-0.009194426,-0.008274414,-0.01221876,-0.02363908,0.004706808,-0.005863205,-0.001624707,0.02560571,-0.2680149808163999,0.2807766775050001,0.7622961709199995,-0.02173354,0.01093826,-0.02235761
2023-12-21 07:22:25.413000192,-0.04228007,-0.008866075,-0.008230584,-0.01361318,-0.03065432,0.007707657,-0.005781507,-0.002431568,0.02720281,-0.2737964878163999,0.2783451095050001,0.7894989809199995,-0.02185348,0.01093664,-0.02190862
2023-12-21 07:22:25.427000064,-0.04215588,-0.00863032,-0.008368751,-0.01711272,-0.03464695,0.01225731,-0.005682769,-0.003131352,0.02904883,-0.2794792568163999,0.2752137575050001,0.8185478109199995,-0.02191455,0.01088685,-0.02141388
2023-12-21 07:22:25.440999936,-0.04208053,-0.008182194,-0.008504533,-0.01214134,-0.03910379,0.01817936,-0.005939685,-0.004024569,0.03099383,-0.2854189418163999,0.2711891885050002,0.8495416409199995,-0.02203145,0.01084794,-0.02089239
2023-12-21 07:22:25.454999808,-0.04213429,-0.007903051,-0.008440834,-0.01218959,-0.04223876,0.01762464,-0.006313645,-0.004142391,0.03296646,-0.2917325868163999,0.2670467975050001,0.8825081009199995,-0.02213388,0.01076948,-0.02037294
2023-12-21 07:22:25.468000000,-0.04201457,-0.007539213,-0.008482423,-0.0110471,-0.04379715,0.01412147,-0.006740573,-0.004715975,0.03494516,-0.2984731598163999,0.2623308225050001,0.9174532609199996,-0.02224049,0.01069942,-0.01982453
2023-12-21 07:22:25.482000128,-0.04177723,-0.007199455,-0.008534959,-0.01843427,-0.04697214,0.008888429,-0.007350225,-0.005089589,0.03699449,-0.3058233848163998,0.2572412335050001,0.9544477509199996,-0.02234168,0.01062242,-0.01923487
2023-12-21 07:22:25.496999936,-0.04146116,-0.006800201,-0.008623709,-0.02616265,-0.04998528,0.01454175,-0.007888293,-0.006178323,0.03902232,-0.3137116778163998,0.2510629105050002,0.9934700709199996,-0.02247889,0.01051278,-0.01859827
2023-12-21 07:22:25.509999872,-0.04108127,-0.006427411,-0.008573789,-0.0366649,-0.05181118,0.008368964,-0.008559084,-0.006699402,0.04105489,-0.3222707618163998,0.2443635085050002,1.0345249609199996,-0.02260829,0.0104259,-0.01792302
2023-12-21 07:22:25.523000064,-0.04089934,-0.006027658,-0.008393811,-0.03860347,-0.05183166,0.002893728,-0.009354877,-0.006841142,0.04362123,-0.3316256388163998,0.2375223665050002,1.0781461909199996,-0.02278897,0.01032104,-0.01723461
2023-12-21 07:22:25.536999936,-0.04069535,-0.005678959,-0.008560371,-0.03754715,-0.05079428,0.003125308,-0.01048426,-0.006227467,0.04647654,-0.3421098988163998,0.2312948995050002,1.1246227309199996,-0.02293743,0.01028015,-0.01649387
2023-12-21 07:22:25.552000000,-0.04043835,-0.005352125,-0.008545476,-0.03459191,-0.0505986,0.01302914,-0.01157146,-0.005660809,0.04949754,-0.3536813588163998,0.2256340905050002,1.1741202709199996,-0.02313289,0.01023898,-0.01569549
2023-12-21 07:22:25.565999872,-0.04014459,-0.004782408,-0.008849783,-0.03602809,-0.05526598,0.02080373,-0.01273743,-0.005086877,0.05232496,-0.3664187888163998,0.2205472135050002,1.2264452309199996,-0.02332725,0.01018694,-0.01486995
2023-12-21 07:22:25.579000064,-0.03977808,-0.004445013,-0.008777113,-0.04118155,-0.05430822,0.01647542,-0.01357321,-0.004293045,0.05521065,-0.3799919988163998,0.2162541685050002,1.2816558809199996,-0.02352278,0.01016064,-0.01399404
2023-12-21 07:22:25.592999936,-0.03965668,-0.004063345,-0.008894908,-0.04016495,-0.05621851,0.01507495,-0.01474743,-0.003284287,0.05806633,-0.3947394288163998,0.2129698815050002,1.3397222109199995,-0.02374569,0.01013183,-0.01308549
2023-12-21 07:22:25.608000000,-0.03954481,-0.00355313,-0.009059887,-0.02964613,-0.05887232,0.0159436,-0.01573452,-0.002546014,0.06102892,-0.4104739488163998,0.2104238675050002,1.4007511309199996,-0.02396585,0.01013435,-0.0121292
2023-12-21 07:22:25.621999872,-0.03937766,-0.002993055,-0.009019451,-0.02560218,-0.06634792,0.0146007,-0.01678071,-0.001623524,0.06456289,-0.4272546588163998,0.2088003435050002,1.4653140209199995,-0.02421058,0.01013459,-0.01107374
2023-12-21 07:22:25.636000000,-0.03938412,-0.00240434,-0.008966364,-0.02257163,-0.07189224,0.01472838,-0.0176256,-0.001456767,0.06833314,-0.4448802588163998,0.2073435765050002,1.5336471609199995,-0.02448974,0.01006705,-0.009988136
2023-12-21 07:22:25.648999936,-0.03905796,-0.001764227,-0.008955985,-0.0249409,-0.0793432,0.01428312,-0.01896306,-0.001650203,0.0718112,-0.4638433188163998,0.2056933735050002,1.6054583609199995,-0.02478629,0.0100489,-0.008848048
2023-12-21 07:22:25.663000064,-0.03884842,-0.001214668,-0.008911354,-0.02597421,-0.08101049,0.006311509,-0.02051761,-0.002503342,0.07560101,-0.4843609288163998,0.2031900315050002,1.6810593709199997,-0.02511647,0.009976868,-0.007660721
2023-12-21 07:22:25.676000000,-0.03873283,-0.0006717071,-0.008769634,-0.02803986,-0.08158442,-0.001430264,-0.02279739,-0.003330996,0.07997575,-0.5071583188163998,0.1998590355050002,1.7610351209199997,-0.02550079,0.009899147,-0.00640994
2023-12-21 07:22:25.691000064,-0.03850017,-0.0002205111,-0.008541298,-0.02561236,-0.07521602,-0.006699091,-0.02517276,-0.003297674,0.08472944,-0.5323310788163998,0.1965613615050002,1.8457645609199995,-0.02592099,0.00988812,-0.005062774
2023-12-21 07:22:25.704000000,-0.03866728,0.0001088008,-0.008455708,-0.01366103,-0.06854551,-0.009549251,-0.02777941,-0.002767995,0.08977906,-0.5601104888163998,0.1937933665050002,1.93554362092,-0.02636847,0.009827011,-0.003663464
2023-12-21 07:22:25.719000064,-0.03872282,0.0004455261,-0.008267961,-0.005928115,-0.06108806,-0.01016698,-0.03003873,-0.00198085,0.09507784,-0.5901492188163998,0.1918125165050002,2.0306214609199995,-0.02683229,0.009796946,-0.002200891
2023-12-21 07:22:25.732000000,-0.03862084,0.0007615834,-0.008183342,-0.005862145,-0.05920344,-0.008725498,-0.03241545,-0.001973052,0.1005321,-0.6225646688163998,0.1898394645050002,2.13115356092,-0.02729359,0.009756609,-0.0006593158
2023-12-21 07:22:25.746000128,-0.03839993,0.001223199,-0.00806345,-0.01435478,-0.05828214,-0.01188759,-0.03443538,-0.002691817,0.105673,-0.6570000488163998,0.1871476475050002,2.2368265609199995,-0.02782084,0.009690407,0.0009471169
2023-12-21 07:22:25.760000000,-0.03814138,0.001543675,-0.008102799,-0.02598687,-0.05598825,-0.004974393,-0.0360798,-0.00378652,0.1113299,-0.6930798488163998,0.1833611275050002,2.3481564609199994,-0.02834351,0.009577985,0.002699967
2023-12-21 07:22:25.773999872,-0.03784605,0.002129905,-0.008000747,-0.03347147,-0.05803613,0.001138136,-0.03765326,-0.004514451,0.1174826,-0.7307331088163999,0.1788466765050002,2.46563906092,-0.02893573,0.009495698,0.004531279
2023-12-21 07:22:25.788000000,-0.03761816,0.00281398,-0.008290869,-0.03394055,-0.07178439,0.01037527,-0.03947348,-0.004676765,0.1233944,-0.7702065888163998,0.1741699115050002,2.58903346092,-0.02950259,0.0094897,0.006452295
2023-12-21 07:22:25.802000128,-0.03735701,0.003606878,-0.008417522,-0.03843743,-0.08104148,0.01943743,-0.0407379,-0.004157477,0.1296753,-0.8109444888163998,0.1700124345050002,2.71870876092,-0.03013325,0.00948426,0.008458414
2023-12-21 07:22:25.815000064,-0.03710486,0.004341193,-0.008437052,-0.03771884,-0.09236551,0.0215031,-0.04239173,-0.004212355,0.1357266,-0.8533362188163998,0.1658000795050002,2.85443536092,-0.03075201,0.009434261,0.01055598
2023-12-21 07:22:25.828999936,-0.03676307,0.005067624,-0.008488895,-0.04333152,-0.1007393,0.0209129,-0.04457799,-0.004205172,0.1420185,-0.8979142088163997,0.1615949075050002,2.9964538609199995,-0.03140174,0.009374629,0.01274109
2023-12-21 07:22:25.842999808,-0.03652086,0.005893823,-0.008479452,-0.04249294,-0.1085088,0.021521,-0.04685799,-0.004255578,0.148053,-0.9447721988163996,0.1573393295050002,3.1445068609199995,-0.03210475,0.009326939,0.01502929
2023-12-21 07:22:25.857000192,-0.03620365,0.00688009,-0.008490806,-0.03539459,-0.1167008,0.01753417,-0.04964763,-0.004322309,0.1538231,-0.9944198288163996,0.1530170205050002,3.2983299609199994,-0.03288425,0.009314396,0.01734005
2023-12-21 07:22:25.871000064,-0.03620489,0.007617746,-0.008557351,-0.03328095,-0.1167639,0.01756528,-0.05281208,-0.004157546,0.1600486,-1.0472319088163995,0.1488594745050002,3.4583785609199995,-0.03367154,0.009237627,0.0197043
2023-12-21 07:22:25.884999936,-0.03599223,0.008395687,-0.008565648,-0.02678995,-0.1164081,0.01967063,-0.05642585,-0.004088163,0.1658927,-1.1036577588163996,0.1447713115050002,3.62427126092,-0.03455974,0.009226548,0.02221198
2023-12-21 07:22:25.898999808,-0.03594584,0.009205543,-0.008730601,-0.02135924,-0.1122098,0.0193669,-0.06036821,-0.003769527,0.1717994,-1.1640259688163996,0.1410017845050002,3.79607066092,-0.0354974,0.009170731,0.024813
2023-12-21 07:22:25.912000000,-0.03587942,0.009943794,-0.00886822,-0.01672577,-0.1097304,0.02740577,-0.06464205,-0.003458368,0.1772299,-1.2286680188163996,0.1375434165050002,3.97330056092,-0.03650511,0.00915145,0.02743699
2023-12-21 07:22:25.926000128,-0.03586957,0.01055453,-0.009000912,-0.01213827,-0.09986227,0.02608301,-0.06912015,-0.003086599,0.1825512,-1.2977881688163997,0.1344568175050002,4.155851760919999,-0.03757177,0.009107919,0.0301279
2023-12-21 07:22:25.940000000,-0.03597445,0.01113117,-0.009147333,-0.005562365,-0.09467743,0.02592072,-0.07368121,-0.003027083,0.1874832,-1.3714693788163996,0.1314297345050002,4.343334960919999,-0.03870282,0.009072337,0.03287391
2023-12-21 07:22:25.953999872,-0.03609541,0.01163449,-0.009006408,0.001863006,-0.08906058,0.01814749,-0.07806182,-0.002406476,0.1926252,-1.4495311988163997,0.1290232585050002,4.535960160919999,-0.03987172,0.009068111,0.03571299
2023-12-21 07:22:25.968000000,-0.03639627,0.01223701,-0.009077656,0.01355509,-0.08426855,0.01333573,-0.08254295,-0.002406256,0.1977296,-1.5320741488163998,0.1266170025050002,4.733689760919999,-0.04112743,0.008993961,0.03863234
2023-12-21 07:22:25.982000128,-0.03662081,0.01254973,-0.009123297,0.02342374,-0.07439962,0.01068284,-0.08670178,-0.00297309,0.2030684,-1.6187759288164,0.1236439125050002,4.936758160919999,-0.04237806,0.008962251,0.04161889
2023-12-21 07:22:26.003000064,-0.03691435,0.01294367,-0.008919869,0.03106284,-0.06756289,0.007445429,-0.0906176,-0.004132485,0.2077344,-1.7093935288164,0.1195114275050002,5.144492560919999,-0.04374529,0.008906936,0.04464787
2023-12-21 07:22:26.009999872,-0.03727617,0.0131358,-0.009030375,0.03563677,-0.05646122,0.005234384,-0.09464506,-0.006097444,0.2129166,-1.8040385888164,0.1134139835050002,5.357409160919999,-0.04511646,0.008778726,0.04775122
2023-12-21 07:22:26.022000128,-0.03743502,0.01333428,-0.009091591,0.03410791,-0.04239867,0.005989412,-0.09750889,-0.007954489,0.2173777,-1.9015474788164,0.1054594945050002,5.574786860919999,-0.0465502,0.00865123,0.05090641
2023-12-21 07:22:26.036000000,-0.037709,0.01324675,-0.009110558,0.03683357,-0.02849966,0.006563696,-0.1002688,-0.01091473,0.2220579,-2.0018162788164,0.0945447645050002,5.796844760919999,-0.04797193,0.008413116,0.05413152
2023-12-21 07:22:26.049999872,-0.03794974,0.01311247,-0.00926939,0.03663047,-0.01051181,0.009145271,-0.1020824,-0.01482691,0.2265789,-2.1038986788164,0.0797178545050002,6.023423660919999,-0.04942981,0.008075974,0.05736778
2023-12-21 07:22:26.063000064,-0.03809801,0.01287286,-0.009305287,0.03600094,-0.0008638309,0.01005805,-0.1037632,-0.01951258,0.2309111,-2.2076618788164,0.0602052745050002,6.254334760919999,-0.05088464,0.007712882,0.06066312
2023-12-21 07:22:26.076999936,-0.03880891,0.01284774,-0.009685459,0.04754137,0.01119069,0.01743446,-0.104318,-0.0249984,0.2356941,-2.3119798788164,0.0352068745050002,6.490028860919999,-0.05238742,0.007170365,0.06400198
2023-12-21 07:22:26.091000064,-0.03949503,0.01261755,-0.009946706,0.06837599,0.01616927,0.0252235,-0.1041551,-0.03056755,0.240893,-2.4161349788164,0.0046393245050002,6.730921860919999,-0.05378366,0.006668167,0.06753116
2023-12-21 07:22:26.104999936,-0.04033972,0.01255479,-0.01016968,0.08754226,0.01636723,0.02447784,-0.103207,-0.03635025,0.246605,-2.5193419788164,-0.0317109254949997,6.977526860919999,-0.05517412,0.00604351,0.07111433
2023-12-21 07:22:26.119000064,-0.0408351,0.01246886,-0.01013205,0.08712739,0.01451391,0.01759275,-0.1014912,-0.04088375,0.2528163,-2.6208331788164,-0.0725946754949997,7.230343160919999,-0.05653159,0.005414791,0.07479052
2023-12-21 07:22:26.132999936,-0.04128061,0.01238982,-0.00988101,0.07778136,0.01254229,0.002331314,-0.09897282,-0.04432631,0.2602394,-2.7198059988164,-0.1169209854949997,7.490582560919998,-0.05785041,0.00477393,0.07857684
2023-12-21 07:22:26.147000064,-0.0412931,0.01235751,-0.009842915,0.06106672,0.007919943,-0.008765789,-0.09591275,-0.04589202,0.2682803,-2.8157187488164,-0.1628130054949997,7.758862860919998,-0.05909004,0.004192805,0.08255164
2023-12-21 07:22:26.160999936,-0.04068413,0.01234242,-0.009358026,0.01643558,0.002249006,-0.02335149,-0.09233061,-0.04357627,0.2779534,-2.9080493588164,-0.2063892754949997,8.036816260919998,-0.06026456,0.003813895,0.08672355
2023-12-21 07:22:26.174000128,-0.04043279,0.01234436,-0.008832401,-0.01564465,-0.003093523,-0.04379106,-0.08823165,-0.03706999,0.2888398,-2.9962810088164,-0.2434592654949997,8.325656060919998,-0.06136874,0.003526177,0.09106994
2023-12-21 07:22:26.188999936,-0.04050072,0.01250845,-0.008142469,-0.01780732,-0.008252981,-0.06206686,-0.08313762,-0.02858463,0.3015023,-3.0794186288164,-0.2720438954949997,8.627158360919998,-0.06242961,0.003318671,0.09555802
2023-12-21 07:22:26.203000064,-0.04023658,0.01270844,-0.00743533,-0.01892642,-0.02085728,-0.07531314,-0.0781266,-0.02210378,0.3131179,-3.1575452288164,-0.2941476754949997,8.940276260919997,-0.06336495,0.00311765,0.1001677
2023-12-21 07:22:26.216000000,-0.03979626,0.01293022,-0.006534761,-0.0362457,-0.0314603,-0.09513607,-0.07263505,-0.01734431,0.324167,-3.2301802788164,-0.3114919854949998,9.264443260919997,-0.06420888,0.002896802,0.1049524
2023-12-21 07:22:26.230000128,-0.03907059,0.01329932,-0.005429507,-0.06409102,-0.04214332,-0.1123338,-0.06634075,-0.01177413,0.3365124,-3.2965210288164,-0.3232661154949998,9.600955660919997,-0.06493822,0.002860796,0.1100495
2023-12-21 07:22:26.244000000,-0.03873863,0.01367499,-0.004334158,-0.06928631,-0.05615425,-0.1234914,-0.05989305,-0.004470824,0.3494124,-3.3564140788164,-0.3277369394949997,9.950368060919995,-0.06552923,0.002972451,0.1153416
2023-12-21 07:22:26.257999872,-0.03891815,0.01427236,-0.003563215,-0.04546315,-0.06925222,-0.1281493,-0.05308006,0.002773583,0.3628271,-3.4094941388164,-0.3249633564949997,10.313195160919998,-0.06609862,0.003138294,0.1207061
2023-12-21 07:22:26.272000000,-0.03917205,0.01496645,-0.002522606,-0.01475494,-0.08506268,-0.1250986,-0.04625614,0.006343694,0.3757586,-3.4557502788164003,-0.3186196624949997,10.688953760919995,-0.0665994,0.00324023,0.1262521
2023-12-21 07:22:26.286000128,-0.03970919,0.0156984,-0.001617618,0.01492572,-0.09950694,-0.1228682,-0.03913354,0.007201971,0.3897179,-3.4948838188164,-0.3114176914949997,11.078671660919998,-0.06697052,0.00329395,0.1320712
2023-12-21 07:22:26.300000000,-0.0408535,0.01653416,-0.0009781076,0.05553996,-0.1108036,-0.1162435,-0.03305535,0.009239963,0.4040779,-3.5279391688164004,-0.3021777284949997,11.48274956092,-0.067283,0.003497775,0.1381381
2023-12-21 07:22:26.313999872,-0.04299423,0.01745455,-0.0006349403,0.1356682,-0.125294,-0.09191142,-0.02791044,0.01283436,0.420166,-3.5558496088164,-0.2893433684949997,11.90291556092,-0.06752674,0.003739821,0.1444608
2023-12-21 07:22:26.328000000,-0.04563964,0.01838482,-0.0002797086,0.2224049,-0.1324902,-0.08327527,-0.0226856,0.01320607,0.4354422,-3.5785352088164,-0.2761372984949997,12.33835776092,-0.06768008,0.003736145,0.1509131
2023-12-21 07:22:26.341000192,-0.04743578,0.01917398,0.0007289751,0.2553398,-0.1374666,-0.08756163,-0.01740967,0.007581381,0.4487601,-3.5959448788164003,-0.2685559174949997,12.78711786092,-0.06776239,0.003514611,0.1574578
2023-12-21 07:22:26.356000000,-0.04807522,0.02019411,0.001420472,0.2157439,-0.1471006,-0.0888781,-0.01265366,-0.003134761,0.4598266,-3.6085985388164,-0.2716906784949997,13.246944460919998,-0.06779742,0.003080418,0.1641481
2023-12-21 07:22:26.368999936,-0.04814916,0.02135571,0.001904649,0.1522372,-0.1525974,-0.08100952,-0.008101557,-0.0162668,0.4703423,-3.6167000958164,-0.2879574784949997,13.71728676092,-0.06780989,0.0025352,0.171034
2023-12-21 07:22:26.384000000,-0.04810495,0.02256423,0.002260372,0.08826302,-0.1592583,-0.06623381,-0.003707249,-0.02843694,0.4813593,-3.6204073448164,-0.3163944184949998,14.198646060919998,-0.06776378,0.001957434,0.1780649
2023-12-21 07:22:26.397000192,-0.04800522,0.02359496,0.002922963,0.03972173,-0.1657493,-0.06091522,0.0003564432,-0.03628582,0.4927336,-3.6200509016164,-0.3526802384949998,14.691379660919996,-0.06764567,0.001358397,0.1853113
2023-12-21 07:22:26.411000064,-0.04784668,0.02472856,0.003363294,0.01584517,-0.1655025,-0.05334149,0.004213801,-0.04201314,0.505518,-3.6158371006164,-0.3946933784949998,15.196897660919998,-0.06754451,0.0007679162,0.1927702
2023-12-21 07:22:26.424999936,-0.04772174,0.02566,0.003798551,-0.003129178,-0.16132,-0.05083538,0.007832855,-0.04649794,0.5188394,-3.6080042456164,-0.4411913184949998,15.715737060919995,-0.06731953,-1.211703e-05,0.2003787
2023-12-21 07:22:26.437999872,-0.04720346,0.02662228,0.004326545,-0.02533466,-0.1559177,-0.04895782,0.01122751,-0.05186345,0.5327516,-3.5967767356164,-0.4930547684949998,16.248488660919996,-0.06708787,-0.0008697525,0.2082409
2023-12-21 07:22:26.452000000,-0.04656142,0.02745391,0.004859464,-0.0488801,-0.1458609,-0.04930474,0.01436071,-0.05690312,0.5480856,-3.5824160256164,-0.5499578884949998,16.796574260919996,-0.06682114,-0.001688681,0.2163054
2023-12-21 07:22:26.466000128,-0.0463817,0.02816743,0.005190657,-0.05624874,-0.130003,-0.04686923,0.0173002,-0.06046596,0.5637431,-3.5651158256164,-0.6104238484949999,17.360317360919996,-0.06647046,-0.002589444,0.2245679
2023-12-21 07:22:26.480000000,-0.04633606,0.02847009,0.005647984,-0.04361585,-0.109466,-0.04813915,0.02009,-0.06311997,0.5805938,-3.5450258256164,-0.6735438184949999,17.940911160919995,-0.06605326,-0.003477872,0.233108
2023-12-21 07:22:26.493999872,-0.04645583,0.02861305,0.005989848,-0.0211452,-0.08300927,-0.04634152,0.02350908,-0.0651321,0.5989166,-3.5215167456163994,-0.7386759184949999,18.539827760919994,-0.06557842,-0.004416822,0.2418716
2023-12-21 07:22:26.508000000,-0.0467491,0.02870729,0.006136179,-0.001696399,-0.0579584,-0.04226132,0.02736524,-0.06645389,0.6164698,-3.4941515056163994,-0.8051298084949999,19.156297560919995,-0.06504248,-0.005395652,0.2508389
2023-12-21 07:22:26.522000128,-0.04686836,0.02871571,0.006329646,0.009408014,-0.03627869,-0.03674006,0.03183039,-0.06733806,0.6336755,-3.4623211156164,-0.8724678684949999,19.78997306092,-0.06447393,-0.006276134,0.2600143
2023-12-21 07:22:26.536000000,-0.0470286,0.02860666,0.006080702,0.01236311,-0.01135361,-0.01775061,0.03723334,-0.06819872,0.6512888,-3.4250877756163995,-0.940666588495,20.44126186092,-0.06383646,-0.007161429,0.2693959
2023-12-21 07:22:26.549999872,-0.04706369,0.0283985,0.005573471,0.01665328,0.004336672,0.0115521,0.0424369,-0.0692629,0.6677338,-3.3826508756164,-1.009929488495,21.108995660919994,-0.0630601,-0.008048924,0.2790418
2023-12-21 07:22:26.564000000,-0.04731844,0.02796586,0.005113048,0.02173358,0.02721108,0.02993429,0.04840961,-0.06977792,0.6847706,-3.3342412656164,-1.0797074084949998,21.793766260919995,-0.06220473,-0.008978166,0.2889389
2023-12-21 07:22:26.578000128,-0.04779439,0.02733064,0.004506047,0.03831574,0.05039104,0.04592346,0.05462248,-0.06959829,0.7030548,-3.2796187856164,-1.149305698495,22.496821060919995,-0.06126599,-0.009863119,0.2990522
2023-12-21 07:22:26.591000064,-0.04842432,0.02694263,0.003353124,0.05657002,0.06922539,0.07511298,0.06011967,-0.06902785,0.7209057,-3.2194991156163995,-1.218333548495,23.217726760919994,-0.06034056,-0.01068184,0.3094003
2023-12-21 07:22:26.604999936,-0.04883152,0.02602784,0.002140342,0.06900583,0.09284577,0.1015176,0.06582053,-0.06833877,0.7384839,-3.1536785856164,-1.286672318495,23.95621066092,-0.05924153,-0.0114107,0.3200201
2023-12-21 07:22:26.620000000,-0.04970166,0.02494387,0.001370145,0.08954253,0.1201318,0.1046634,0.07216686,-0.067417,0.7561233,-3.0815117256164,-1.354089318495,24.71233396091999,-0.05807259,-0.01216905,0.33076
2023-12-21 07:22:26.632999936,-0.05040351,0.02353105,0.0005900776,0.1001472,0.157246,0.0931055,0.07902525,-0.0633553,0.7725145,-3.0024864756164,-1.417444618495,25.48484846091999,-0.05681597,-0.01269877,0.341699
2023-12-21 07:22:26.647000064,-0.05177756,0.02179518,-0.0003578288,0.1286933,0.1963081,0.08742351,0.08639768,-0.05643829,0.7886935,-2.9160887956164,-1.473882908495,26.273541960919992,-0.05541509,-0.01315029,0.3528786
2023-12-21 07:22:26.660999936,-0.05356767,0.02006461,-0.001800261,0.1766071,0.227305,0.102619,0.09467517,-0.04823721,0.805212,-2.8214136256164,-1.522120118495,27.07875396092,-0.0538319,-0.01347371,0.3641924
2023-12-21 07:22:26.675000064,-0.05553201,0.01836956,-0.003237655,0.224637,0.2446814,0.1225839,0.1027673,-0.04186538,0.8203363,-2.7186463256164,-1.563985498495,27.89909026092,-0.05218276,-0.01378372,0.3757112
2023-12-21 07:22:26.688999936,-0.05755205,0.01655006,-0.00486804,0.2522975,0.2649766,0.140375,0.1108492,-0.03694091,0.8343504,-2.6077971256164,-1.600926408495,28.73344066092,-0.05049606,-0.0140577,0.387375
2023-12-21 07:22:26.703000064,-0.05949977,0.01424637,-0.006254973,0.2721397,0.2886297,0.1434042,0.1180636,-0.03333837,0.8470878,-2.4897335256163995,-1.634264778495,29.58052846092,-0.04869172,-0.01425972,0.39923
2023-12-21 07:22:26.716999936,-0.06078359,0.01208065,-0.007780572,0.2604154,0.3131248,0.1453822,0.1243091,-0.02791895,0.8591649,-2.3654244256163994,-1.662183728495,30.43969336092,-0.04688504,-0.01422732,0.411231
2023-12-21 07:22:26.730000128,-0.06096084,0.009660568,-0.009241506,0.2004307,0.3346132,0.1433414,0.1298169,-0.0146849,0.8732962,-2.235607525616399,-1.676868628495,31.312989560919995,-0.04496046,-0.01358535,0.4235234
2023-12-21 07:22:26.744000000,-0.06057714,0.007029593,-0.01019119,0.1130019,0.3556649,0.1316517,0.1343917,0.01252055,0.8910498,-2.101215825616399,-1.664348078495,32.20403936091999,-0.04301148,-0.01203359,0.4361473
2023-12-21 07:22:26.757999872,-0.06469963,0.004494175,-0.01114412,0.2127275,0.3669526,0.0989804,0.1381532,0.04672725,0.9112679,-1.963062625616399,-1.617620828495,33.11530726091999,-0.04107952,-0.01040761,0.4491467
2023-12-21 07:22:26.772000000,-0.07147344,0.002280645,-0.01267694,0.4687508,0.3591793,0.0926411,0.140654,0.07303108,0.931515,-1.822408625616399,-1.544589748495,34.04682226091999,-0.03918555,-0.009162616,0.4621633
2023-12-21 07:22:26.786000128,-0.07593592,0.0005203225,-0.01425601,0.5896917,0.3311248,0.1140094,0.1399006,0.08561613,0.9429035,-1.682508025616399,-1.458973618495,34.98972576091999,-0.03740682,-0.007833451,0.4750727
2023-12-21 07:22:26.800000000,-0.07900105,-0.001263868,-0.01575805,0.5750775,0.3088111,0.1283689,0.1357496,0.08870856,0.9465174,-1.5467584256163989,-1.370265058495,35.936243160919986,-0.03576261,-0.006614031,0.4879468
2023-12-21 07:22:26.813999872,-0.08039928,-0.003008272,-0.01754692,0.4755847,0.2973104,0.155076,0.12765,0.08384528,0.9435548,-1.4191084256163988,-1.286419778495,36.87979796091999,-0.03431395,-0.005514682,0.5006346
2023-12-21 07:22:26.828000000,-0.08072513,-0.004382957,-0.01960311,0.337111,0.2832778,0.1948234,0.116382,0.07089801,0.9344728,-1.3027264256163988,-1.215521768495,37.81427076091999,-0.03308714,-0.004809896,0.5130785
2023-12-21 07:22:26.842000128,-0.07941493,-0.00533925,-0.02203094,0.1610544,0.2652912,0.2306546,0.1024891,0.05195377,0.9208048,-1.2002373256163987,-1.163567998495,38.73507556091999,-0.03214988,-0.004383451,0.5253112
2023-12-21 07:22:26.856000000,-0.07669726,-0.006351668,-0.02387722,-0.03536304,0.2513596,0.2415374,0.08638978,0.03350466,0.904955,-1.1138475456163988,-1.130063338495,39.64003056091999,-0.03140986,-0.003978962,0.5372408
2023-12-21 07:22:26.869999872,-0.07419852,-0.007599141,-0.02495752,-0.1823863,0.2424961,0.2030497,0.06756916,0.02321124,0.8900488,-1.0462783856163989,-1.106852098495,40.53007936091999,-0.03093526,-0.003355372,0.5491248
2023-12-21 07:22:26.884000000,-0.07226149,-0.00915641,-0.02558419,-0.2319588,0.2398208,0.1450955,0.04805734,0.02601946,0.8793243,-0.9982210456163988,-1.080832638495,41.40940366091999,-0.03074568,-0.002362088,0.5609797
2023-12-21 07:22:26.897000192,-0.07179821,-0.01097816,-0.02524551,-0.1946159,0.247489,0.05781817,0.02829265,0.03908865,0.8707207,-0.9699283956163988,-1.041743988495,42.28012436091999,-0.03087785,-0.001247088,0.5726769
2023-12-21 07:22:26.911000064,-0.07208692,-0.01346768,-0.02373646,-0.1075346,0.2611307,-0.06145189,0.008617517,0.05515748,0.8624321,-0.9613108786163987,-0.986586508495,43.14255646091999,-0.03118311,-0.0001980327,0.5841756
2023-12-21 07:22:26.924999936,-0.07113834,-0.01606188,-0.02179011,-0.0813174,0.2796185,-0.171941,-0.008809945,0.06736257,0.8528395,-0.9701208236163988,-0.919223938495,43.99539596091999,-0.03171258,0.0009056926,0.5954059
2023-12-21 07:22:26.938999808,-0.06935051,-0.01869025,-0.01996793,-0.1129504,0.2973324,-0.2476911,-0.02382073,0.07627247,0.8425123,-0.9939415536163988,-0.8429514684949999,44.83790826092,-0.03234238,0.002173676,0.6065916
2023-12-21 07:22:26.953000192,-0.06813141,-0.02095465,-0.01808244,-0.1386592,0.3005931,-0.2979416,-0.03561575,0.08645114,0.8349897,-1.0295573036163987,-0.7565003284949999,45.67289796092,-0.03309355,0.003618541,0.6179045
2023-12-21 07:22:26.967000064,-0.06765953,-0.02318978,-0.01603987,-0.1137042,0.2897674,-0.3225918,-0.04301967,0.09901127,0.8322501,-1.0725769736163988,-0.657489058495,46.50514806092,-0.03385823,0.005285176,0.6293337
2023-12-21 07:22:26.980999936,-0.06817281,-0.02528027,-0.01407748,-0.04358998,0.2686446,-0.3285837,-0.04739231,0.1107227,0.8334112,-1.1199692836163988,-0.546766358495,47.33855926092,-0.03456658,0.006955578,0.6408743
2023-12-21 07:22:26.994999808,-0.06929734,-0.02689927,-0.01276505,0.03927023,0.2398638,-0.301989,-0.04974191,0.1165912,0.8362666,-1.1697111936163989,-0.430175158495,48.17482586092,-0.03531034,0.008448867,0.6523184
2023-12-21 07:22:27.008999936,-0.07006844,-0.02822119,-0.01152573,0.08892366,0.2108304,-0.2673377,-0.05105077,0.1141499,0.8400534,-1.2207619636163989,-0.3160252584949999,49.01487926092,-0.03606337,0.009776589,0.6638302
2023-12-21 07:22:27.023000064,-0.07025979,-0.02945276,-0.01071332,0.08570189,0.1835455,-0.2263215,-0.05189722,0.104983,0.8452863,-1.272659183616399,-0.2110422584949999,49.86016556092,-0.03677465,0.01091305,0.6754634
2023-12-21 07:22:27.036000000,-0.07033497,-0.03055858,-0.009828614,0.06635009,0.1647699,-0.1942721,-0.0525649,0.09207835,0.8517889,-1.3252240836163989,-0.1189639084949999,50.711954460920005,-0.03754731,0.01185892,0.6872609
2023-12-21 07:22:27.049999872,-0.07058446,-0.03162644,-0.009094957,0.05644349,0.1492421,-0.168522,-0.0535973,0.07665344,0.8602746,-1.378821383616399,-0.0423104684949999,51.57222906092,-0.03831193,0.01250123,0.699259
2023-12-21 07:22:27.064000000,-0.07098087,-0.03263117,-0.008395482,0.05421396,0.138455,-0.1523324,-0.05468031,0.05873483,0.8704955,-1.433501693616399,0.016424361505,52.44272456092,-0.03907584,0.01285546,0.7113597
2023-12-21 07:22:27.078000128,-0.07071238,-0.03341013,-0.007855888,0.03734444,0.1267487,-0.1314211,-0.05576855,0.04077309,0.8812864,-1.489270243616399,0.057197451505,53.32401096092,-0.03989322,0.01308544,0.7236348
2023-12-21 07:22:27.092000000,-0.07011822,-0.0342371,-0.007730983,-0.001173488,0.1170918,-0.1079902,-0.05698614,0.02227734,0.8922003,-1.546256383616399,0.079474791505,54.21621126092,-0.04073166,0.01297848,0.7360837
2023-12-21 07:22:27.105999872,-0.06897194,-0.03463858,-0.00794366,-0.05304508,0.102564,-0.07490301,-0.05864003,0.003417691,0.9026169,-1.604896413616399,0.082892482505,55.11882816092,-0.04166618,0.01265987,0.7486831
2023-12-21 07:22:27.119000064,-0.06786326,-0.03494451,-0.007781495,-0.09765746,0.08451383,-0.05747756,-0.06074966,-0.01664483,0.9130472,-1.665646073616399,0.066247652505,56.03187536092,-0.04266394,0.01208042,0.7614279
2023-12-21 07:22:27.134000128,-0.066576,-0.03555412,-0.007670477,-0.1317871,0.07469375,-0.0522884,-0.06305311,-0.03557436,0.9227176,-1.728699183616399,0.030673292505,56.95459296092,-0.04364405,0.0113421,0.774358
2023-12-21 07:22:27.148000000,-0.06528357,-0.03594207,-0.007635674,-0.1510386,0.06789326,-0.04582354,-0.06577367,-0.05235665,0.9330367,-1.794472853616399,-0.0216833574949999,57.88762966092,-0.04471079,0.01047786,0.7874708
2023-12-21 07:22:27.160999936,-0.06452971,-0.03629265,-0.007724151,-0.1451797,0.05954186,-0.03490772,-0.06912774,-0.06616072,0.9450174,-1.863600593616399,-0.0878440774949999,58.83264706092,-0.04576813,0.009400343,0.8007182
2023-12-21 07:22:27.175000064,-0.06408865,-0.03648131,-0.007634278,-0.1211402,0.04955893,-0.03113796,-0.07264969,-0.07723338,0.956975,-1.936250283616399,-0.1650774574949999,59.78962206092,-0.04694401,0.008157004,0.8141046
2023-12-21 07:22:27.188999936,-0.06334382,-0.03682702,-0.007472188,-0.1068232,0.04762915,-0.03350246,-0.07741944,-0.088584,0.9672086,-2.013669723616399,-0.2536614574949999,60.75683066092,-0.04825339,0.006675715,0.8275412
2023-12-21 07:22:27.204000000,-0.06293735,-0.0376582,-0.007313229,-0.09138009,0.06442693,-0.04168253,-0.08429112,-0.1005413,0.9758857,-2.097960843616399,-0.3542027574949999,61.73271636092,-0.04966024,0.005058547,0.8410642
2023-12-21 07:22:27.217999872,-0.06279576,-0.03849141,-0.007378066,-0.06669998,0.08778764,-0.03903695,-0.09126173,-0.1078176,0.9842554,-2.189222573616399,-0.462020357495,62.71697176092,-0.05113901,0.003648363,0.854771
2023-12-21 07:22:27.231000064,-0.06399732,-0.0391922,-0.0075193,0.005575771,0.09662761,-0.0185087,-0.09707906,-0.1105569,0.9938201,-2.286301633616399,-0.572577257495,63.71079186092,-0.05259421,0.002235833,0.8685989
2023-12-21 07:22:27.244000000,-0.06576112,-0.0397169,-0.007417283,0.09906476,0.09130006,-0.004407358,-0.1011021,-0.1120107,1.003276,-2.3874037336163987,-0.684587957495,64.71406786092,-0.05412393,0.0006589849,0.8825511
2023-12-21 07:22:27.259000064,-0.06695677,-0.04036593,-0.007212624,0.1460782,0.08554362,-0.009249129,-0.1055914,-0.1166003,1.010797,-2.4929951336163985,-0.801188257495,65.72486486092,-0.05577673,-0.001171455,0.8965834
2023-12-21 07:22:27.272000000,-0.06727728,-0.04125391,-0.007040394,0.1288835,0.09090909,-0.02220253,-0.1118281,-0.1220239,1.017076,-2.6048232336163983,-0.923212157495,66.74194086092,-0.05755813,-0.002909621,0.910778
2023-12-21 07:22:27.287000064,-0.06808365,-0.04183496,-0.007041502,0.1136721,0.09338051,-0.01484389,-0.1183976,-0.1239245,1.024848,-2.7232208336163986,-1.047136657495,67.76678886092,-0.05938786,-0.004436809,0.9251404
2023-12-21 07:22:27.300000000,-0.06905782,-0.04182976,-0.007219424,0.1197383,0.07036078,0.005874095,-0.1237863,-0.1194019,1.035019,-2.8470071336163985,-1.166538557495,68.80180786092001,-0.06126707,-0.005717457,0.9396911
2023-12-21 07:22:27.313999872,-0.07023033,-0.0414059,-0.007526639,0.1337783,0.02950495,0.02340525,-0.1277628,-0.111458,1.045275,-2.974769933616398,-1.277996557495,69.84708286092001,-0.06319094,-0.00699313,0.9543392
2023-12-21 07:22:27.328000000,-0.07110228,-0.04075285,-0.007853052,0.1307956,-0.0105758,0.04592196,-0.1314651,-0.1039877,1.054666,-3.1062350336163984,-1.381984257495,70.90174886092001,-0.0651885,-0.008204291,0.9690259
2023-12-21 07:22:27.342000128,-0.07104533,-0.04005249,-0.008112162,0.09123694,-0.04660267,0.05516208,-0.136343,-0.0950028,1.063253,-3.2425780336163985,-1.476987057495,71.96500186092001,-0.0672748,-0.009094683,0.9838126
2023-12-21 07:22:27.356000000,-0.07135258,-0.03923647,-0.008509505,0.06053782,-0.06538327,0.06396201,-0.1411568,-0.08354392,1.071444,-3.3837348336163986,-1.560530977495,73.03644586092001,-0.06945757,-0.009759332,0.9987191
2023-12-21 07:22:27.369999872,-0.07129553,-0.03837007,-0.008914148,0.03331967,-0.08296354,0.07130855,-0.1458086,-0.0679922,1.080035,-3.5295434336163987,-1.628523177495,74.11648086092,-0.07162933,-0.01004404,1.013806
2023-12-21 07:22:27.384000000,-0.07108431,-0.03734731,-0.009219483,0.005003838,-0.1053522,0.07175174,-0.1496881,-0.04663254,1.088277,-3.679231533616399,-1.675155717495,75.20475786092001,-0.07379755,-0.01000184,1.028998
2023-12-21 07:22:27.398000128,-0.06840868,-0.03626609,-0.008947438,-0.1072489,-0.1232931,0.03830217,-0.151402,-0.01379115,1.098719,-3.830633533616399,-1.688946867495,76.30347686092001,-0.07594492,-0.008828687,1.044525
2023-12-21 07:22:27.412000000,-0.06685568,-0.03511413,-0.008717174,-0.1771188,-0.1438137,0.01535857,-0.1506555,0.03743941,1.113318,-3.981289033616399,-1.6515074574950002,77.41679486092002,-0.0779708,-0.006426394,1.060408
2023-12-21 07:22:27.426000128,-0.07109752,-0.03346475,-0.009265531,0.009274032,-0.1683242,0.05405145,-0.1474369,0.09666966,1.132131,-4.128725933616399,-1.554837797495,78.54892586092002,-0.07994385,-0.003709654,1.076557
2023-12-21 07:22:27.440000000,-0.07897963,-0.03160251,-0.009925731,0.383633,-0.1997357,0.1323302,-0.1420536,0.1450542,1.15066,-4.270779533616398,-1.4097835974950002,79.69958586092002,-0.08182779,-0.001323328,1.092672
2023-12-21 07:22:27.453000192,-0.08576263,-0.03025297,-0.009766526,0.6484339,-0.2113934,0.14503,-0.1356559,0.163589,1.158679,-4.406435433616398,-1.2461945974950002,80.85826486092003,-0.08358194,0.0004990518,1.108557
2023-12-21 07:22:27.467000064,-0.08991881,-0.02974728,-0.008562803,0.7057179,-0.1869416,0.08443177,-0.1287258,0.1540828,1.15518,-4.535161233616398,-1.092111797495,82.01344486092003,-0.08524582,0.001715187,1.124173
2023-12-21 07:22:27.482000128,-0.08997902,-0.02961694,-0.007376956,0.5280821,-0.1422799,-0.004234686,-0.1208955,0.125955,1.143858,-4.656056733616397,-0.966156797495,83.15730286092003,-0.0867613,0.002425642,1.139543
2023-12-21 07:22:27.494999808,-0.08512022,-0.02919099,-0.006547546,0.1333559,-0.1124165,-0.0690423,-0.1106352,0.08997204,1.127932,-4.766691933616397,-0.876184757495,84.28523486092003,-0.08800015,0.00300789,1.154635
2023-12-21 07:22:27.508999936,-0.07851641,-0.0277002,-0.006446381,-0.2782401,-0.1259216,-0.08132142,-0.09765163,0.06321632,1.113696,-4.864343563616397,-0.812968437495,85.39893086092003,-0.0890067,0.003850231,1.169718
2023-12-21 07:22:27.523000064,-0.07289651,-0.02558268,-0.00659473,-0.5344977,-0.1726618,-0.05789855,-0.08232567,0.05276151,1.103338,-4.946669233616397,-0.7602069274950001,86.50226886092003,-0.08976778,0.004968969,1.184918
2023-12-21 07:22:27.536999936,-0.06950784,-0.02324678,-0.006884123,-0.5867723,-0.2220615,-0.006016977,-0.06571732,0.05833369,1.096128,-5.012386553616397,-0.7018732374950001,87.59839686092002,-0.09035552,0.006367321,1.200068
2023-12-21 07:22:27.551000064,-0.06741507,-0.02069465,-0.008185767,-0.5178308,-0.264175,0.07425077,-0.0517211,0.07061778,1.090912,-5.064107653616397,-0.6312554574950001,88.68930886092002,-0.09076807,0.007801285,1.215178
2023-12-21 07:22:27.564999936,-0.06533024,-0.01760909,-0.009365904,-0.4418168,-0.3082013,0.1474324,-0.04019148,0.08239177,1.084774,-5.104299133616397,-0.5488636874950001,89.77408286092002,-0.0911639,0.009321298,1.230081
2023-12-21 07:22:27.579000064,-0.06261963,-0.01472407,-0.01014592,-0.4202327,-0.3403635,0.1663543,-0.03122277,0.09621581,1.077473,-5.1355219036163975,-0.4526478774950001,90.85155586092002,-0.09148394,0.01125805,1.244893
2023-12-21 07:22:27.592999936,-0.06137539,-0.01195036,-0.01058127,-0.3545679,-0.3561693,0.1602565,-0.02592725,0.1131497,1.070901,-5.161449153616397,-0.3394981774950001,91.92245686092002,-0.09188653,0.01340731,1.259547
2023-12-21 07:22:27.605999872,-0.06149981,-0.009613741,-0.0108161,-0.2365762,-0.3468773,0.1452739,-0.02383804,0.1276309,1.066092,-5.185287193616397,-0.2118672774950001,92.98854886092002,-0.0922711,0.01546907,1.274137
2023-12-21 07:22:27.620000000,-0.06174421,-0.007596709,-0.01091022,-0.130556,-0.3254729,0.1139604,-0.02322858,0.1361241,1.062072,-5.208515773616397,-0.0757431774950001,94.05062086092002,-0.09259219,0.01739974,1.28876
2023-12-21 07:22:27.634000128,-0.06206542,-0.005776655,-0.01047454,-0.05603343,-0.3025202,0.07377745,-0.02274932,0.1362914,1.057545,-5.231265093616397,0.0605482225049998,95.10816586092002,-0.0928755,0.01912457,1.303329
2023-12-21 07:22:27.648000000,-0.06256834,-0.004162863,-0.01010092,-0.003821087,-0.2828163,0.04146331,-0.02223302,0.1281555,1.054167,-5.253498113616397,0.1887037225049999,96.16233286092005,-0.09314246,0.02056106,1.317902
2023-12-21 07:22:27.661999872,-0.06334793,-0.002359215,-0.01013954,0.03723502,-0.2697335,0.03572802,-0.02183411,0.1144088,1.052433,-5.275332223616397,0.3031125225049998,97.21476586092002,-0.09347901,0.02171581,1.332327
2023-12-21 07:22:27.675000064,-0.06413993,-0.0006339177,-0.01015804,0.065487,-0.2549092,0.03797308,-0.02143409,0.09707224,1.052183,-5.296766313616397,0.4001847625049999,98.26694886092002,-0.09386146,0.02259825,1.34677
2023-12-21 07:22:27.690000128,-0.06484856,0.0007164739,-0.0102397,0.08421725,-0.2378072,0.04211272,-0.02131989,0.07698409,1.053461,-5.318086203616397,0.4771688525049999,99.32040986092002,-0.0941401,0.02315034,1.361415
2023-12-21 07:22:27.703000064,-0.06559812,0.002334524,-0.01041125,0.0942906,-0.2251951,0.05192919,-0.02164139,0.05313387,1.055446,-5.339727593616397,0.5303027225049999,100.37585586092004,-0.09450897,0.02327862,1.376123
2023-12-21 07:22:27.717999872,-0.06621803,0.003722046,-0.01061591,0.09263808,-0.2151476,0.0603174,-0.02175965,0.02762648,1.057674,-5.361487243616397,0.5579292025049999,101.43352986092005,-0.09485035,0.022999,1.390896
2023-12-21 07:22:27.731000064,-0.06617235,0.005088024,-0.01038533,0.06326791,-0.2095357,0.04769426,-0.02171546,0.001257074,1.05955,-5.383202703616397,0.5591862765049999,102.49307986092003,-0.09524339,0.02237187,1.405704
2023-12-21 07:22:27.744999936,-0.06605141,0.006355915,-0.01006933,0.02838395,-0.2029595,0.02695381,-0.021641,-0.02561335,1.06178,-5.404843703616397,0.5335729265049999,103.55485986092005,-0.09568428,0.02134183,1.420493
2023-12-21 07:22:27.759000064,-0.06587814,0.007432219,-0.009391983,0.002099672,-0.1906434,-0.002792932,-0.02143151,-0.05228335,1.064886,-5.426275213616397,0.4812895765049998,104.61974586092003,-0.09607242,0.02000609,1.435287
2023-12-21 07:22:27.772999936,-0.06550953,0.00836841,-0.008777746,-0.02120041,-0.1753111,-0.0322422,-0.02077205,-0.07513745,1.068301,-5.447047263616397,0.4061521265049999,105.68804686092004,-0.09642564,0.01844013,1.450211
2023-12-21 07:22:27.787000064,-0.06526456,0.009323411,-0.008228199,-0.03039251,-0.1612672,-0.04154893,-0.01944292,-0.09576,1.072439,-5.466490183616397,0.3103921265049998,106.76048586092004,-0.09675194,0.01666599,1.465152
2023-12-21 07:22:27.801000192,-0.06474134,0.01012393,-0.007893115,-0.04486461,-0.1499436,-0.04136521,-0.01677761,-0.1128704,1.077353,-5.483267793616397,0.1975217265049998,107.83783886092004,-0.09693795,0.01481892,1.480157
2023-12-21 07:22:27.815000064,-0.06447034,0.01076544,-0.007373771,-0.05376835,-0.133435,-0.04277319,-0.01322283,-0.1237062,1.082697,-5.496490623616397,0.0738155265049998,108.92053586092004,-0.09710914,0.01293167,1.495305
2023-12-21 07:22:27.828999936,-0.06433621,0.0111328,-0.006964048,-0.04627605,-0.1095291,-0.03866888,-0.009543516,-0.1306518,1.088855,-5.506034139616397,-0.0568362734950001,110.00939086092004,-0.09722394,0.01101277,1.510537
2023-12-21 07:22:27.842999808,-0.0641842,0.01123738,-0.00693054,-0.03103597,-0.07763093,-0.03095095,-0.005994443,-0.1352429,1.095152,-5.512028582616397,-0.1920791734950001,111.10454286092003,-0.09727234,0.00909571,1.525818
2023-12-21 07:22:27.857000192,-0.06421684,0.01104719,-0.006941876,-0.02083015,-0.03922125,-0.02238042,-0.002014235,-0.137884,1.1011,-5.514042817616397,-0.3299631734950001,112.20564286092004,-0.09723177,0.007089283,1.541049
2023-12-21 07:22:27.872000000,-0.06417966,0.01088522,-0.007012956,-0.01254294,-0.002477097,-0.006390736,0.002256136,-0.1391012,1.107273,-5.511786681616397,-0.4690643734950002,113.31291586092004,-0.09711792,0.005141532,1.556396
2023-12-21 07:22:27.884999936,-0.06434355,0.0100482,-0.007730292,0.0002894786,0.03574109,0.01493291,0.007298574,-0.1377076,1.114247,-5.504488107616397,-0.6067719734950002,114.42716286092003,-0.09689663,0.003372708,1.571976
2023-12-21 07:22:27.898000128,-0.06447858,0.009184513,-0.008215446,0.009715392,0.07224004,0.03302085,0.01278923,-0.13233,1.122059,-5.491698877616397,-0.7391019734950002,115.54922186092004,-0.09663292,0.001796346,1.587795
2023-12-21 07:22:27.912000000,-0.06508866,0.008243512,-0.008759624,0.03035344,0.1075679,0.03552972,0.01916371,-0.1219366,1.130937,-5.472535167616397,-0.8610385734950001,116.68015886092005,-0.09629261,0.0004513606,1.603696
2023-12-21 07:22:27.926000128,-0.06596372,0.007087577,-0.009480511,0.06692217,0.133932,0.04647401,0.02629917,-0.107893,1.13977,-5.446235997616397,-0.968931573495,117.81992886092004,-0.09575243,-0.000613931,1.619535
2023-12-21 07:22:27.940000000,-0.06730936,0.006151062,-0.01036881,0.1159517,0.1449318,0.06755508,0.0340257,-0.09310316,1.148116,-5.412210297616397,-1.0620347334950002,118.96804486092005,-0.09511466,-0.001512867,1.635446
2023-12-21 07:22:27.953000192,-0.06856749,0.005527947,-0.01153707,0.1505413,0.1391196,0.09093554,0.04237871,-0.07829282,1.155081,-5.369831587616397,-1.140327553495,120.12312586092004,-0.09438907,-0.002238273,1.651399
2023-12-21 07:22:27.967000064,-0.06961751,0.005056594,-0.01291928,0.1549613,0.1257683,0.1197233,0.04990157,-0.06440215,1.159777,-5.319930017616397,-1.2047297034950002,121.28290286092005,-0.09357528,-0.002765307,1.6674
2023-12-21 07:22:27.982000128,-0.07053504,0.004861388,-0.0143579,0.1547589,0.107144,0.1524996,0.05644161,-0.05112951,1.162829,-5.263488407616396,-1.2558592134950002,122.44573186092003,-0.09272341,-0.003047506,1.683432
2023-12-21 07:22:27.996000000,-0.06909682,0.004792467,-0.01584723,0.05733575,0.0889055,0.1762102,0.06131195,-0.02935675,1.168404,-5.202176457616396,-1.2852159634950002,123.61413586092004,-0.09185009,-0.002431476,1.69969
2023-12-21 07:22:28.008999936,-0.06649707,0.004468072,-0.01636792,-0.09361222,0.08331241,0.1539147,0.06475557,0.01553837,1.180732,-5.137420887616396,-1.2696775934950002,124.79486786092004,-0.09092912,-0.0001141201,1.71637
2023-12-21 07:22:28.024000000,-0.07177436,0.003669586,-0.01661971,0.08218934,0.07871011,0.0987772,0.06795489,0.07750147,1.200783,-5.069465997616396,-1.192176123495,125.99565086092004,-0.08987986,0.002561261,1.733674
2023-12-21 07:22:28.036999936,-0.08402807,0.003426436,-0.01705696,0.6322492,0.05001787,0.06894567,0.07072213,0.128579,1.228031,-4.998743867616396,-1.063597123495,127.22368186092004,-0.08894647,0.004547358,1.751171
2023-12-21 07:22:28.051000064,-0.09472019,0.003510948,-0.01811488,1.042317,0.01034478,0.08009387,0.07088998,0.1497457,1.245669,-4.927853887616396,-0.913851423495,128.46935086092006,-0.08806718,0.006295977,1.768346
2023-12-21 07:22:28.064999936,-0.1025895,0.003669415,-0.01975984,1.17014,-0.01015579,0.1236731,0.06829321,0.1453122,1.25152,-4.859560677616396,-0.7685392234950001,129.72087086092006,-0.0873043,0.007623388,1.785313
2023-12-21 07:22:28.079000064,-0.1057418,0.003796048,-0.02229009,0.9887588,0.0001151636,0.2056236,0.06141189,0.1226388,1.249537,-4.798148787616396,-0.6459004234950001,130.97040786092006,-0.08673431,0.008643015,1.802174
2023-12-21 07:22:28.092999936,-0.1018858,0.003754187,-0.02572826,0.5150473,0.04922174,0.3058547,0.05111044,0.09945635,1.244422,-4.747038347616396,-0.5464440734950001,132.21482986092005,-0.08644821,0.01000932,1.819306
2023-12-21 07:22:28.105999872,-0.09630985,0.003753871,-0.02918494,0.01564208,0.1059187,0.3741551,0.03881938,0.08454295,1.236067,-4.708218967616396,-0.4619011234950001,133.45089686092004,-0.08635034,0.01144075,1.836344
2023-12-21 07:22:28.120000000,-0.09056121,0.00374116,-0.03224182,-0.3471178,0.1484545,0.4097793,0.02544785,0.08172773,1.228575,-4.682771117616396,-0.3801733934950001,134.67947186092005,-0.08640009,0.01312125,1.853163
2023-12-21 07:22:28.134000128,-0.08545811,0.003560167,-0.03489125,-0.5390087,0.1698574,0.4074078,0.01188073,0.08962271,1.223123,-4.670890387616397,-0.2905506834950001,135.90259486092003,-0.08653504,0.014974,1.869986
2023-12-21 07:22:28.148000000,-0.08087582,0.003122684,-0.03632847,-0.6149423,0.1750119,0.3380457,-0.0007473566,0.1071684,1.219647,-4.6716377442163965,-0.1833822834950001,137.12224186092004,-0.08676812,0.01717234,1.886746
2023-12-21 07:22:28.161999872,-0.07702153,0.002407849,-0.03644926,-0.6114268,0.1708393,0.2207868,-0.01022652,0.1315951,1.218535,-4.681864264216396,-0.0517871834950001,138.34077686092004,-0.08705609,0.0198404,1.903496
2023-12-21 07:22:28.176000000,-0.07520896,0.001864061,-0.03634499,-0.5041533,0.147299,0.1179787,-0.01796107,0.1608031,1.217618,-4.6998253342163965,0.1090159165049998,139.55839486092003,-0.08739319,0.02279214,1.92016
2023-12-21 07:22:28.191000064,-0.07480006,0.001855705,-0.03654514,-0.3488567,0.1088421,0.06929266,-0.02273821,0.1837584,1.215652,-4.7225635442163965,0.2927743165049998,140.77404686092004,-0.08781782,0.02561876,1.936813
2023-12-21 07:22:28.204000000,-0.07459366,0.002350241,-0.03672752,-0.2224531,0.05166767,0.04828966,-0.02620927,0.1948866,1.210925,-4.748772814216396,0.4876609165049999,141.98497186092004,-0.08829993,0.02823726,1.953333
2023-12-21 07:22:28.217999872,-0.07403065,0.002695072,-0.03673763,-0.1509172,0.00304509,0.03253495,-0.02929716,0.193925,1.203839,-4.778069974216396,0.6815859165049999,143.18881086092003,-0.08879857,0.03067424,1.969746
2023-12-21 07:22:28.232000000,-0.07385552,0.003095981,-0.03631409,-0.09792557,-0.02625074,0.007573857,-0.03404954,0.1832276,1.196134,-4.812119514216396,0.8648135165049999,144.38494486092003,-0.08952825,0.03279789,1.986038
2023-12-21 07:22:28.246000128,-0.07433861,0.003162254,-0.03560254,-0.04360789,-0.03251248,-0.02702166,-0.0401556,0.1655997,1.189698,-4.852275114216396,1.030413216505,145.57464286092002,-0.09036355,0.03447598,2.002228
2023-12-21 07:22:28.260000000,-0.07461531,0.002797235,-0.03470005,0.00169991,-0.01974472,-0.06734022,-0.04655544,0.1419527,1.184299,-4.898830554216396,1.172365916505,146.75894186092003,-0.09115078,0.03574387,2.018322
2023-12-21 07:22:28.272999936,-0.07491665,0.002308849,-0.03341066,0.01974922,-0.01027175,-0.1125151,-0.05318197,0.1137858,1.179832,-4.952012524216396,1.286151716505,147.93877386092004,-0.09201582,0.03645218,2.034368
2023-12-21 07:22:28.287000064,-0.07487148,0.001703992,-0.03171615,0.01984681,0.008835083,-0.1682263,-0.05967959,0.08024146,1.175989,-5.011692114216396,1.366393176505,149.11476286092002,-0.09308894,0.03665267,2.05044
2023-12-21 07:22:28.301000192,-0.07450798,0.000794109,-0.03000063,0.002508951,0.03499313,-0.210004,-0.06589872,0.04642273,1.173231,-5.077590834216395,1.412815906505,150.28799386092,-0.09421457,0.03641902,2.066552
2023-12-21 07:22:28.315000064,-0.07430343,-0.0003030077,-0.02861339,-0.0117415,0.06241649,-0.2271203,-0.07171164,0.01274646,1.171505,-5.149302474216396,1.425562366505,151.45949886092,-0.09535919,0.03573868,2.082687
2023-12-21 07:22:28.328999936,-0.07447516,-0.001320541,-0.02732848,-0.002955954,0.08054587,-0.227144,-0.07658574,-0.01937737,1.171931,-5.225888214216395,1.4061849965050002,152.63142986092,-0.0965744,0.03467011,2.098827
2023-12-21 07:22:28.342999808,-0.07462898,-0.002367485,-0.02620425,0.01524737,0.09065718,-0.2133527,-0.0808675,-0.05013409,1.17426,-5.306755714216395,1.3560509065050002,153.80568986092,-0.09781712,0.0333093,2.115021
2023-12-21 07:22:28.357000192,-0.07491704,-0.003409021,-0.02524153,0.02554428,0.09829854,-0.1977488,-0.08496793,-0.0767873,1.178052,-5.391723644216396,1.2792636065050005,154.98374186092002,-0.09913878,0.03162179,2.131141
2023-12-21 07:22:28.371000064,-0.07495631,-0.00440526,-0.02441393,0.02830294,0.1069454,-0.1822246,-0.08923502,-0.1008317,1.183002,-5.480958664216396,1.1784319065050002,156.16674386092,-0.1005535,0.0297094,2.147312
2023-12-21 07:22:28.384000000,-0.07508299,-0.005447488,-0.02380458,0.02839868,0.1103804,-0.1659954,-0.09366588,-0.1217379,1.188911,-5.574624544216396,1.056694006505,157.35565486092,-0.1019861,0.02757523,2.163638
2023-12-21 07:22:28.398000128,-0.0751522,-0.006189063,-0.02282751,0.02741021,0.1055921,-0.1534061,-0.09794115,-0.1401195,1.196046,-5.672565694216395,0.9165745065050002,158.55170086092,-0.1035504,0.02524048,2.180206
2023-12-21 07:22:28.413000192,-0.07517599,-0.006900419,-0.02203116,0.02055753,0.09090042,-0.1468716,-0.1028958,-0.1553028,1.203915,-5.775461494216395,0.7612717065050002,159.75561586092,-0.1051419,0.02280206,2.196793
2023-12-21 07:22:28.426000128,-0.075378,-0.007248595,-0.021483,0.02112154,0.06847066,-0.1286722,-0.1078981,-0.1662556,1.211537,-5.883359594216395,0.5950161065050001,160.96715286091998,-0.1068127,0.02023319,2.213362
2023-12-21 07:22:28.440000000,-0.07564332,-0.007324517,-0.02059878,0.02825466,0.04200028,-0.1253325,-0.1121305,-0.1735569,1.219271,-5.995490094216395,0.4214592065050001,162.18642386091997,-0.108538,0.01758908,2.230092
2023-12-21 07:22:28.453999872,-0.07580788,-0.007164743,-0.01965403,0.02851517,0.006667172,-0.1248001,-0.1166328,-0.1775414,1.227703,-6.1121228942163945,0.2439178065050001,163.41412686091996,-0.1103751,0.0150176,2.247079
2023-12-21 07:22:28.468000000,-0.075275,-0.006720357,-0.01894225,0.002067314,-0.02286961,-0.1101959,-0.1211504,-0.1760873,1.235945,-6.233273294216395,0.0678305065050001,164.65007186091995,-0.1122764,0.01272002,2.264242
2023-12-21 07:22:28.482000128,-0.07459603,-0.006101362,-0.01861932,-0.03446088,-0.0555447,-0.08547834,-0.1257535,-0.169051,1.24373,-6.359026794216395,-0.1012204934949998,165.89380186091995,-0.1141643,0.01059549,2.28155
2023-12-21 07:22:28.496000000,-0.07365131,-0.005135659,-0.01817126,-0.07785305,-0.08243229,-0.06282022,-0.1295225,-0.1566526,1.251728,-6.488549294216395,-0.2578730934949998,167.14552986091996,-0.1161411,0.008661731,2.29868
2023-12-21 07:22:28.509999872,-0.07226431,-0.004390355,-0.01743364,-0.1273476,-0.1056174,-0.06488664,-0.1321815,-0.1397923,1.257785,-6.620730794216395,-0.3976653934949998,168.40331486091998,-0.1180452,0.007079341,2.315868
2023-12-21 07:22:28.523000064,-0.07100634,-0.003322702,-0.01737513,-0.1564636,-0.1143429,-0.04381034,-0.1337662,-0.1201126,1.261231,-6.754496994216395,-0.5177779934949999,169.66454586092,-0.1200673,0.005854402,2.333011
2023-12-21 07:22:28.536999936,-0.07009006,-0.002532504,-0.01721685,-0.1584344,-0.1189893,-0.0195118,-0.1350206,-0.09820368,1.259755,-6.889517594216395,-0.6159816734949999,170.92430086092,-0.1220454,0.004907549,2.349966
2023-12-21 07:22:28.551000064,-0.0694132,-0.001722541,-0.01740046,-0.1402843,-0.1107748,0.0008457483,-0.1346629,-0.07555927,1.25307,-7.024180494216395,-0.6915409434949998,172.17737086092,-0.1239872,0.004437504,2.366893
2023-12-21 07:22:28.565999872,-0.06761799,-0.0009371415,-0.01805541,-0.1672535,-0.1029666,0.03902639,-0.1323603,-0.04066058,1.244506,-7.156540794216395,-0.7322015234949999,173.42187686092,-0.125766,0.005075885,2.383925
2023-12-21 07:22:28.579000064,-0.06588046,0.0006810687,-0.01945203,-0.2138753,-0.1137309,0.1029325,-0.1272892,0.02113162,1.242996,-7.283829994216395,-0.7110699034949999,174.66487286092,-0.1274532,0.007791376,2.401238
