time,acceleration_x,acceleration_y,acceleration_z
2023-10-23 14:22:50.783000064,,,
2023-10-23 14:22:55.308000000,-0.0106957199999999,-0.00163181,0.0177358999999999
2023-10-23 14:22:55.362999808,0.11128629,0.0008190509999999,-0.449146778
2023-10-23 14:22:55.372999936,0.000210148,-3.666999999999993e-05,-0.000342137
2023-10-23 14:22:55.384999936,0.00051406,-0.0002223709999999,-0.000522128
2023-10-23 14:22:55.398000128,0.0001249849999999,-0.000101384,-0.0003479659999999
2023-10-23 14:22:55.407000064,0.000319451,-8.638000000000048e-06,-0.0003982209999999
2023-10-23 14:22:55.423000064,0.000452605,5.97540000000004e-05,-0.000473152
2023-10-23 14:22:55.435000064,0.0006549979999999,0.000366288,-0.000220225
2023-10-23 14:22:55.448000000,0.0003796049999999,0.00057936,-0.000180928
2023-10-23 14:22:55.461999872,0.000515825,0.0003352749999999,-0.0003088119999999
2023-10-23 14:22:55.474999808,-8.053700000000032e-05,0.001001259,-2.0736000000000365e-05
2023-10-23 14:22:55.490000128,0.0004216529999999,0.000571841,-0.000163535
2023-10-23 14:22:55.503000064,5.063400000000079e-05,0.000431363,-0.0002370569999999
2023-10-23 14:22:55.516999936,1.9164000000000334e-05,0.0004997439999999,-9.779000000000038e-05
2023-10-23 14:22:55.530999808,2.1432000000000048e-05,0.000474124,-3.812099999999947e-05
2023-10-23 14:22:55.544000000,-7.95759999999996e-05,0.0004927239999999,0.000135408
2023-10-23 14:22:55.558000128,-0.00047401,0.0002604089999999,0.0003659179999999
2023-10-23 14:22:55.572999936,-0.0003034149999999,0.0004772059999999,0.000495273
2023-10-23 14:22:55.585999872,-0.000402621,0.000416426,0.0004390109999999
2023-10-23 14:22:55.600000000,-0.000754878,-2.543999999999984e-05,0.000221353
2023-10-23 14:22:55.612999936,-0.0007200179999999,-7.830000000000337e-06,0.0001424429999999
2023-10-23 14:22:55.628000000,-0.000720821,-0.0006464269999999,-2.439900000000047e-05
2023-10-23 14:22:55.640000000,-0.000576738,0.0001961879999999,8.498800000000025e-05
2023-10-23 14:22:55.656000000,-0.000453046,6.350000000005657e-07,7.208900000000001e-05
2023-10-23 14:22:55.668000000,-0.0005205729999999,1.1690999999999438e-05,0.000237926
2023-10-23 14:22:55.680000000,-0.000531671,-0.000167758,1.8095999999999564e-05
2023-10-23 14:22:55.694999808,-0.000832321,-0.0003439089999999,4.711000000000038e-05
2023-10-23 14:22:55.708000000,-0.0006744029999999,0.00024675,0.0002391429999999
2023-10-23 14:22:55.721999872,-0.000520708,0.0004561399999999,0.000170509
2023-10-23 14:22:55.736999936,-0.000487564,0.00053048,9.155800000000026e-05
2023-10-23 14:22:55.750999808,-0.000472122,0.0005340799999999,0.0001792669999999
2023-10-23 14:22:55.765000192,-8.043839999999998e-05,0.0002631,0.000169506
2023-10-23 14:22:55.779000064,-0.0001911598999999,-0.00062581,5.398899999999995e-05
2023-10-23 14:22:55.792999936,0.0001695902,-0.0006775899999999,-0.000141931
2023-10-23 14:22:55.806999808,-0.000133568,-0.000119845,0.00014337
2023-10-23 14:22:55.822000128,0.0001543583,0.0003549449999999,0.0005010609999999
2023-10-23 14:22:55.835000064,-0.0002378724,0.00033317,0.0003594349999999
2023-10-23 14:22:55.848999936,-0.0005804778,-0.0004134199999999,0.000190711
2023-10-23 14:22:55.861999872,-0.0006750533,-0.000338711,0.000116353
2023-10-23 14:22:55.877000192,-0.0007710147,0.0001924909999999,0.000284359
2023-10-23 14:22:55.891000064,-0.000668338,-5.4600000000000135e-05,0.0003362999999999
2023-10-23 14:22:55.904999936,-0.0005362959999999,-0.0003446719999999,0.000380623
2023-10-23 14:22:55.918999808,-0.0006063089999999,-0.000726748,0.000251387
2023-10-23 14:22:55.933000192,-0.000489618,-0.000688664,0.000433451
2023-10-23 14:22:55.947000064,-0.000434564,-0.0004238019999999,0.0005642899999999
2023-10-23 14:22:55.960000000,-0.0005183829999999,-0.000514553,0.0003266339
2023-10-23 14:22:55.973999872,-0.000291429,-0.000866918,0.0004202183
2023-10-23 14:22:55.989000192,-0.0005255089999999,-0.0001563269999999,0.000233002166
2023-10-23 14:22:56.002000128,-0.000225386,-0.000195236,0.000214172734
2023-10-23 14:22:56.016000000,-0.000360075,0.000158433,0.0002229755
2023-10-23 14:22:56.028999936,-0.0004850759999999,-0.000224677,-2.2126199999999985e-05
2023-10-23 14:22:56.044000000,-0.00032606,-0.0008669379999999,-0.000166938
2023-10-23 14:22:56.058000128,-0.000358367,-0.000405982,-4.2227000000000096e-06
2023-10-23 14:22:56.071000064,-0.0004267009999999,-0.000643066,-9.85052e-05
2023-10-23 14:22:56.084999936,-0.000365204,-0.0001130269999999,0.0001170268999999
2023-10-23 14:22:56.098000128,-0.0002983719999999,0.0001723469999999,0.0002639424
2023-10-23 14:22:56.112000000,-0.000426416,0.00095172,0.0005682331999999
2023-10-23 14:22:56.127000064,-0.0004662369999999,0.0005968239999999,0.000313639
2023-10-23 14:22:56.140000000,-0.000365288,0.000939025,0.000529407
2023-10-23 14:22:56.155000064,-0.0005990839999999,0.000313784,0.0005231999999999
2023-10-23 14:22:56.168000000,-0.00052915,0.0001715309999999,0.000445571
2023-10-23 14:22:56.180999936,-0.0004830199999999,0.0001337009999999,0.000550838
2023-10-23 14:22:56.196000000,-0.00071766,0.00062775,0.0006681389999999
2023-10-23 14:22:56.209000192,-0.0004753199999999,0.0003012019999999,0.00075871
2023-10-23 14:22:56.224000000,-0.00052154,0.0003175469999999,0.00068774
2023-10-23 14:22:56.237999872,-0.00048454,7.579600000000124e-05,0.0005101059999999
2023-10-23 14:22:56.252000000,-0.0003771999999999,0.0001781449999999,0.000488109
2023-10-23 14:22:56.265000192,-0.00031342,-0.0002497369999999,0.0003162909999999
2023-10-23 14:22:56.280000000,-0.0003721699999999,-0.0004859289999999,0.0002008599999999
2023-10-23 14:22:56.293999872,-2.7060000000000625e-05,-0.00049099,2.002699999999972e-05
2023-10-23 14:22:56.308000000,-7.480999999999981e-05,-0.000553346,0.000110255
2023-10-23 14:22:56.323000064,-0.000158,-0.0004499439999999,3.471600000000061e-05
2023-10-23 14:22:56.335000064,4.345000000000043e-05,-0.0001988609999999,0.000116049
2023-10-23 14:22:56.348999936,0.0001473599999999,-0.000197463,0.0002066859999999
2023-10-23 14:22:56.364000000,0.00038455,-0.0001396519999999,0.0005366529999999
2023-10-23 14:22:56.377000192,8.225000000000073e-05,7.307999999999967e-05,0.000342519
2023-10-23 14:22:56.392000000,0.0001819099999999,0.00016919,0.0004880639999999
2023-10-23 14:22:56.404999936,0.0002133,0.0006275259999999,0.0004398909999999
2023-10-23 14:22:56.418999808,0.0002488399999999,-0.000286696,0.000250349
2023-10-23 14:22:56.433000192,0.00033066,-0.0006253439999999,-0.000247751
2023-10-23 14:22:56.447000064,0.00040161,-0.0002778299999999,-7.116699999999872e-05
2023-10-23 14:22:56.460999936,0.00012862,0.0001152999999999,0.0002304689999999
2023-10-23 14:22:56.476000000,-0.00021729,-6.643099999999961e-05,0.0002520509999999
2023-10-23 14:22:56.489000192,-5.023000000000007e-05,-0.000580583,-0.0001119049999999
2023-10-23 14:22:56.502000128,-0.00049667,-0.000623987,-1.4405999999999794e-05
2023-10-23 14:22:56.516000000,-0.0003020099999999,-0.0007594799999999,-0.000110577
2023-10-23 14:22:56.530999808,-5.152000000000108e-05,-0.000370399,-7.04299999999998e-06
2023-10-23 14:22:56.544000000,-0.0001166299999999,-0.0003189309999999,0.0001308469999999
2023-10-23 14:22:56.559000064,-0.0001101299999999,-0.0009179769999999,6.509999999999502e-06
2023-10-23 14:22:56.572999936,0.0003307199999999,-0.001049447,4.736800000000076e-05
2023-10-23 14:22:56.586999808,-0.0001997999999999,-0.0009595326,-4.4868999999999465e-05
2023-10-23 14:22:56.600000000,-0.00023976,-0.0006159730999999,-5.929699999999982e-05
2023-10-23 14:22:56.614000128,-0.00022428,-0.000220889,9.988599999999868e-05
2023-10-23 14:22:56.628999936,-0.0002149199999999,-0.0001056084999999,0.000266961
2023-10-23 14:22:56.642999808,-7.168000000000105e-05,2.8910399999999966e-05,0.0001066499999999
2023-10-23 14:22:56.657000192,-0.0001139,0.0002726529,2.205999999999909e-05
2023-10-23 14:22:56.670000128,8.003999999999997e-05,6.564400000000001e-06,-5.114999999999981e-05
2023-10-23 14:22:56.683000064,0.00033307,9.73535e-05,-5.166000000000025e-05
2023-10-23 14:22:56.697999872,0.0004335899999999,-0.000556988,-0.00016503
2023-10-23 14:22:56.712000000,0.00051049,-0.0005643909999999,-0.0003238749999999
2023-10-23 14:22:56.727000064,0.0009198699999999,-0.000485799,-0.000215302
2023-10-23 14:22:56.739000064,0.0009255399999999,-0.000223398,-0.0001928609999999
2023-10-23 14:22:56.752999936,0.00129576,-4.200999999999988e-05,-0.000195826
2023-10-23 14:22:56.767000064,0.000851244,-0.000229209,-0.0002122529999999
2023-10-23 14:22:56.780999936,0.0013425469999999,-5.489299999999987e-05,2.297400000000025e-05
2023-10-23 14:22:56.795000064,0.0008994889999999,0.00022104,0.000190552
2023-10-23 14:22:56.808999936,0.000645419,0.00014806,0.000125827
2023-10-23 14:22:56.823000064,0.0004943109999999,0.0002317519999999,-2.254900000000018e-05
2023-10-23 14:22:56.836999936,-0.000296122,-0.0004480519999999,-0.000501185
2023-10-23 14:22:56.851000064,-0.0003657479999999,-0.000465681,-0.0003957829999999
2023-10-23 14:22:56.864000000,-0.0004120019999999,-0.0006717509999999,-8.558000000000003e-05
2023-10-23 14:22:56.878000128,-0.0004771219999999,-4.401399999999977e-05,0.0001279839999999
2023-10-23 14:22:56.894000128,-0.000522536,-0.000146466,0.000236771
2023-10-23 14:22:56.905999872,-0.0003167369999999,-0.000187051,0.0002611409999999
2023-10-23 14:22:56.920000000,-0.0001790509999999,8.88600000000005e-06,0.00026364
2023-10-23 14:22:56.933000192,-8.221700000000075e-05,-0.00041305,3.6953999999998766e-05
2023-10-23 14:22:56.948000000,-0.0002007699999999,-0.0001106729999999,-0.0001090549999999
2023-10-23 14:22:56.960999936,-6.477500000000129e-05,-0.0001642889999999,-0.000554316
2023-10-23 14:22:56.976000000,-0.0005295579999999,0.0001184099999999,-0.000728307
2023-10-23 14:22:56.990000128,-0.000551466,-0.0001231779999999,-0.0007219779999999
2023-10-23 14:22:57.003000064,-0.0002858559999999,-0.0001125639999999,-0.0006848799999999
2023-10-23 14:22:57.016999936,-0.00028729,0.000464384,-0.00063787
2023-10-23 14:22:57.030999808,-0.0005514099999999,0.000555845,-0.0002927699999999
2023-10-23 14:22:57.045000192,4.509999999999931e-05,0.0008272929999999,-0.000150938
2023-10-23 14:22:57.060000000,0.0001545899999999,0.000221114,-0.0001910969999999
2023-10-23 14:22:57.073999872,0.00010018,-0.000718834,-0.000542196
2023-10-23 14:22:57.088999936,-0.0001611399999999,0.000423201,-0.0001954019999999
2023-10-23 14:22:57.100000000,-5.384000000000118e-05,0.001159324,9.849999999993544e-07
2023-10-23 14:22:57.112999936,-0.0001062499999999,0.0009365066,3.385100000000054e-05
2023-10-23 14:22:57.128000000,-0.00019516,0.0002237138,0.000178559
2023-10-23 14:23:02.193000192,-0.0027770699999999,0.0092260726,0.0022005139999999
2023-10-23 14:23:02.250999808,-0.04588515,-0.016432084,-0.096797289
2023-10-23 14:23:02.260999936,-0.0050112799999999,0.003409136,-0.00517725
2023-10-23 14:23:02.272000000,-0.00552826,0.0037975640999999,-0.0067549799999999
2023-10-23 14:23:02.284000000,-0.00553826,0.0035814378999999,-0.0072868999999999
2023-10-23 14:23:02.298000128,-0.0063889799999999,0.003551999,-0.0077617999999999
2023-10-23 14:23:02.312000000,-0.0060213,0.0016817719999999,-0.0069774999999999
2023-10-23 14:23:02.324999936,-0.00660212,0.000795692,-0.0066569999999999
2023-10-23 14:23:02.339000064,-0.0066309099999999,-0.000754126,-0.0068349
2023-10-23 14:23:02.352000000,-0.0063097,-0.0016693569999999,-0.0065013
2023-10-23 14:23:02.365999872,-0.0055327,-0.001929831,-0.0058330999999999
2023-10-23 14:23:02.380000000,-0.0046479,-0.001561161,-0.0049977
2023-10-23 14:23:02.394000128,-0.0042782999999999,-0.000974532,-0.0041775
2023-10-23 14:23:02.407000064,-0.0040347999999999,-0.0012653999,-0.0038060999999999
2023-10-23 14:23:02.420999936,-0.004583,-0.0020316631,-0.0037985
2023-10-23 14:23:02.435000064,-0.004896,-0.002460608,-0.0034765999999999
2023-10-23 14:23:02.448000000,-0.0050062999999999,-0.003174231,-0.0037136
2023-10-23 14:23:02.463000064,-0.0047827,-0.0032801609999999,-0.0040681999999999
2023-10-23 14:23:02.476999936,-0.0044799999999999,-0.0031392599999999,-0.0046609999999999
2023-10-23 14:23:02.490000128,-0.0033586,-0.00329623,-0.0047752
2023-10-23 14:23:02.503000064,-0.0022099999999999,-0.0029060199999999,-0.0049437999999999
2023-10-23 14:23:02.516999936,-0.0022428999999999,-0.00261242,-0.0045393999999999
2023-10-23 14:23:02.530999808,-0.0019785,-0.0025187199999999,-0.0043515999999999
2023-10-23 14:23:02.545000192,-0.0021260999999999,-0.00249558,-0.0038903
2023-10-23 14:23:02.560000000,-0.0023436,-0.00124267,-0.0035728999999999
2023-10-23 14:23:02.572000000,-0.0016562999999999,-0.0002323899999999,-0.0032777999999999
2023-10-23 14:23:02.585999872,-0.0009379999999999,0.00033603,-0.0031101
2023-10-23 14:23:02.600000000,-0.0007261,0.00015176,-0.0031627999999999
2023-10-23 14:23:02.614000128,-0.0013993999999999,-0.00037105,-0.0031497
2023-10-23 14:23:02.628999936,-0.0017736,-0.0004834899999999,-0.0026454999999999
2023-10-23 14:23:02.641999872,-0.0019558999999999,0.00024027,-0.001603
2023-10-23 14:23:02.656000000,-0.0020743,0.0007827899999999,-0.0007593999999999
2023-10-23 14:23:02.668999936,-0.0021226,0.00059653,-0.0003577999999999
2023-10-23 14:23:02.683000064,-0.0018351,0.0012017899999999,-0.0002601
2023-10-23 14:23:02.696999936,-0.0013105999999999,0.00176617,-0.0001220999999999
2023-10-23 14:23:02.711000064,-0.0009018,0.00166264,-0.0004495999999999
2023-10-23 14:23:02.724999936,-0.0009072999999999,0.0008819899999999,-0.0008711
2023-10-23 14:23:02.739000064,-0.0010795999999999,0.00116083,-0.0008260999999999
2023-10-23 14:23:02.752999936,-0.0006656,0.00210598,-0.0004181
2023-10-23 14:23:02.767000064,-0.0006284,0.0034189699999999,-0.0001915999999999
2023-10-23 14:23:02.780999936,-0.0006211999999999,0.00411754,0.0002736999999999
2023-10-23 14:23:02.795000064,-0.0006929999999999,0.0047624819999999,0.0005658
2023-10-23 14:23:02.808999936,0.0007204,0.004226379,0.0011798
2023-10-23 14:23:02.823000064,0.0012761,0.0026686249,0.0014440999999999
2023-10-23 14:23:02.836999936,0.0017208999999999,0.0016820690999999,0.0017199999999999
2023-10-23 14:23:02.849999872,0.0022818999999999,0.001694376,0.0022482
2023-10-23 14:23:02.864000000,0.0029863,0.001864237,0.0029623
2023-10-23 14:23:02.878000128,0.0035607,0.0014367449999999,0.0030426
2023-10-23 14:23:02.892000000,0.0046261999999999,0.001017596,0.0033063999999999
2023-10-23 14:23:02.905999872,0.0054971999999999,0.0012208159999999,0.0033951
2023-10-23 14:23:02.920000000,0.0067101999999999,0.0014710449999999,0.0037525999999999
2023-10-23 14:23:02.934000128,0.0077143,0.00176237,0.0041047999999999
2023-10-23 14:23:02.948000000,0.0086154999999999,0.0011418699999999,0.0035754
2023-10-23 14:23:02.961999872,0.0102029,0.0009796,0.0036006
2023-10-23 14:23:02.976000000,0.0112676999999999,0.0010030999999999,0.0040188999999999
2023-10-23 14:23:02.990000128,0.0113093999999999,0.00083627,0.0049845
2023-10-23 14:23:03.003000064,0.0094470799999999,0.00081304,0.0051061
2023-10-23 14:23:03.016999936,0.00891454,0.0002862099999999,0.0053142999999999
2023-10-23 14:23:03.030999808,0.00809422,-0.0001119299999999,0.0055463
2023-10-23 14:23:03.045000192,0.0076536899999999,-0.00039445,0.0060668
2023-10-23 14:23:03.059000064,0.0058097299999999,-0.00085864,0.0059676999999999
2023-10-23 14:23:03.072999936,0.00524405,-0.0016331799999999,0.0060477999999999
2023-10-23 14:23:03.086999808,0.0047179399999999,-0.00218912,0.0056594
2023-10-23 14:23:03.101000192,0.00394524,-0.0023047799999999,0.0053914999999999
2023-10-23 14:23:03.114000128,0.0033084899999999,-0.0023262279999999,0.0053749
2023-10-23 14:23:03.128999936,0.00311728,-0.002784103,0.0054297999999999
2023-10-23 14:23:03.141999872,0.00359514,-0.003000348,0.0055937
2023-10-23 14:23:03.156000000,0.0034327099999999,-0.0031434165,0.0048869
2023-10-23 14:23:03.170000128,0.0040316599999999,-0.0025180955,0.0048484
2023-10-23 14:23:03.184000000,0.00462482,-0.002179452,0.0050940999999999
2023-10-23 14:23:03.197999872,0.0045068399999999,-0.0023915769999999,0.0050475999999999
2023-10-23 14:23:03.212000000,0.0042948299999999,-0.001740899,0.0047761
2023-10-23 14:23:03.226000128,0.00452547,-0.0008839309999999,0.00481832
2023-10-23 14:23:03.239000064,0.00440621,-0.00025967,0.0046171599999999
2023-10-23 14:23:03.253999872,0.0041534369999999,8.145000000000027e-05,0.00500653
2023-10-23 14:23:03.268000000,0.004490132,0.0012636339999999,0.0051583199999999
2023-10-23 14:23:03.282000128,0.004456279,0.001987164,0.0049528199999999
2023-10-23 14:23:03.295000064,0.004653768,0.003584792,0.0046566499999999
2023-10-23 14:23:03.308999936,0.004269869,0.00303396,0.00409868
2023-10-23 14:23:03.323000064,0.004046975,0.0016839439,0.00375427
2023-10-23 14:23:03.336999936,0.00401771,0.0024525761,0.0034370899999999
2023-10-23 14:23:03.349999872,0.0034898599999999,0.004502642,0.0040101699999999
2023-10-23 14:23:03.364999936,0.00354757,0.006128348,0.00434043
2023-10-23 14:23:03.378000128,0.00311537,0.0057989099999999,0.0045534099999999
2023-10-23 14:23:03.392999936,0.0029183399999999,0.00416133,0.00442366
2023-10-23 14:23:03.405999872,0.00299848,0.0021876899999999,0.00399291
2023-10-23 14:23:03.420000000,0.0030382499999999,-0.00067913,0.00331481
2023-10-23 14:23:03.434000128,0.0026754099999999,-0.00315742,0.0024255799999999
2023-10-23 14:23:03.448000000,0.00246086,-0.0040264799999999,0.00201892
2023-10-23 14:23:03.461999872,0.00195897,-0.00391504,0.0020850799999999
2023-10-23 14:23:03.476000000,0.0017635099999999,-0.00254643,0.00198838
2023-10-23 14:23:03.489000192,0.0020180799999999,-0.0020455449999999,0.0023506399999999
2023-10-23 14:23:03.503000064,0.0020789,-0.001526742,0.00204156
2023-10-23 14:23:03.516999936,0.0018992,-0.0006427459999999,0.0024364599999999
2023-10-23 14:23:03.532000000,0.0015202999999999,0.0001206169999999,0.00247007
2023-10-23 14:23:03.545000192,0.00132539,-0.0002488409999999,0.00232669
2023-10-23 14:23:03.559000064,0.0011200099999999,-0.001007939,0.001679
2023-10-23 14:23:03.572999936,0.00123331,-0.00128219,0.0014650999999999
2023-10-23 14:23:03.585999872,0.00118982,-0.000738023,0.00146641
2023-10-23 14:23:03.601000192,0.00140594,-0.0006841389999999,0.0016562669999999
2023-10-23 14:23:03.615000064,0.0017239499999999,-0.00026287,0.001969982
2023-10-23 14:23:03.628999936,0.00193109,-0.000690275,0.0022788019999999
2023-10-23 14:23:03.641999872,0.0017544199999999,-0.0007803509999999,0.002308348
2023-10-23 14:23:03.656000000,0.00187081,-0.0013468091,0.0024948899
2023-10-23 14:23:03.670000128,0.0017094899999999,-0.0021688359,0.0024310391
2023-10-23 14:23:03.683000064,0.00166718,-0.002620309,0.0021426839999999
2023-10-23 14:23:03.697999872,0.00163578,-0.003855682,0.0018946099999999
2023-10-23 14:23:03.711000064,0.0018134799999999,-0.0034857199999999,0.001600924
2023-10-23 14:23:03.726000128,0.00159403,-0.0029096,0.001529914
2023-10-23 14:23:03.739000064,0.0017729299999999,-0.00244256,0.0017036699999999
2023-10-23 14:23:03.752999936,0.001683,-0.0019004899999999,0.00142104
2023-10-23 14:23:03.767000064,0.00190524,-0.00192922,0.00142624
2023-10-23 14:23:03.782000128,0.0016881399999999,-0.0021395399999999,0.00154026
2023-10-23 14:23:03.795000064,0.00154229,-0.0017485999999999,0.00180322
2023-10-23 14:23:03.808000000,0.0014636,-0.00079274,0.0016827199999999
2023-10-23 14:23:03.823000064,0.0012310999999999,-0.00041522,0.0018555799999999
2023-10-23 14:23:03.836000000,0.0010829899999999,-5.190999999999876e-05,0.00197811
2023-10-23 14:23:03.849999872,0.0006266099999999,0.0001684199999999,0.00212027
2023-10-23 14:23:03.864999936,0.00070203,0.0005266899999999,0.0024142499999999
2023-10-23 14:23:03.878000128,0.00024786,0.0006216799999999,0.0022271999999999
2023-10-23 14:23:03.892000000,0.0002732399999999,0.0002021399999999,0.00233239
2023-10-23 14:23:03.905999872,-0.00013375,-0.0003746199999999,0.00193745
2023-10-23 14:23:03.920000000,2.458000000001015e-05,-0.00030281,0.00212989
2023-10-23 14:23:03.933000192,-0.00058023,-0.00019862,0.0016694899999999
2023-10-23 14:23:03.948000000,-0.00050793,-2.2369999999997253e-05,0.00213681
2023-10-23 14:23:03.960999936,-0.00068936,0.0005090899999999,0.00180533
2023-10-23 14:23:03.974999808,-0.00065842,0.00107957,0.0019012399999999
2023-10-23 14:23:03.989000192,-0.00073774,0.0013870599999999,0.00211366
2023-10-23 14:23:04.003000064,-0.0010952799999999,0.00168468,0.0019003999999999
2023-10-23 14:23:04.016999936,-0.0012994399999999,0.00115797,0.0017609499999999
2023-10-23 14:23:04.029999872,-0.00168519,0.0018299999999999,0.00166588
2023-10-23 14:23:04.045000192,-0.0014109,0.00214595,0.00203487
2023-10-23 14:23:04.059000064,-0.00130716,0.00211483,0.0021014499999999
2023-10-23 14:23:04.072000000,-0.0011036199999999,0.0020220199999999,0.00212176
2023-10-23 14:23:04.085999872,-0.0008440899999999,0.001678955,0.00213561
2023-10-23 14:23:04.100000000,-0.00096126,0.0017936959999999,0.0016990399999999
2023-10-23 14:23:04.114000128,-0.0004453299999999,0.00134841,0.0018602899999999
2023-10-23 14:23:04.128000000,-0.0007524,0.001980193,0.00185518
2023-10-23 14:23:04.141999872,-0.00094396,0.001124188,0.0014361899999999
2023-10-23 14:23:04.156000000,-0.00044766,0.0002533139999999,0.00133769
2023-10-23 14:23:04.168999936,-0.0006289699999999,-0.0007120669999999,0.00156712
2023-10-23 14:23:04.183000064,-0.00037732,-0.0001441869999999,0.0016303399999999
2023-10-23 14:23:04.197999872,4.900000000057636e-07,0.0011497269999999,0.00181623
2023-10-23 14:23:04.212000000,7.16299999999892e-05,0.001623562,0.00160082
2023-10-23 14:23:04.226000128,-0.0003761699999999,0.00121809437,0.0008837
2023-10-23 14:23:04.239000064,-0.0006489999999999,0.00135935163,0.00038051
2023-10-23 14:23:04.252999936,-0.00087248,0.0013983099999999,0.00047076
2023-10-23 14:23:04.267000064,-0.0010116,1.3720000000000052e-05,0.0004594399999999
2023-10-23 14:23:04.280999936,-0.0010587599999999,-0.0006822679999999,0.00042957
2023-10-23 14:23:04.295000064,-0.00203371,-0.000557713,0.0002337399999999
2023-10-23 14:23:04.308999936,-0.0032683599999999,0.000976661,-0.00011234
2023-10-23 14:23:04.323000064,-0.00362019,0.00151069,-8.729999999999849e-05
2023-10-23 14:23:04.336000000,-0.00327757,0.0016994459999999,-0.0001116799999999
2023-10-23 14:23:04.351000064,-0.0029259599999999,0.001154588,-7.822000000000384e-05
2023-10-23 14:23:04.364000000,-0.0024689099999999,0.001231695,-0.0004116299999999
2023-10-23 14:23:04.378000128,-0.00130203,0.0007988659999999,-2.863000000000171e-05
2023-10-23 14:23:04.392000000,-0.00036798,0.000433756,-3.0530000000000834e-05
2023-10-23 14:23:04.405999872,0.00042361,-0.000532325,-0.0002497899999999
2023-10-23 14:23:04.420000000,0.0005322599999999,-0.0012899319999999,-0.00032469
2023-10-23 14:23:04.434000128,0.0001659899999999,-0.0008887579999999,-0.00059776
2023-10-23 14:23:04.447000064,0.0003577599999999,-0.000562428,-0.00044626
2023-10-23 14:23:04.460999936,0.0005848999999999,-0.000359232,-0.0001771599999999
2023-10-23 14:23:04.474999808,0.00036299,-0.0008200569999999,-0.0005156899999999
2023-10-23 14:23:04.489000192,0.00027702,-0.001152729,-0.0008310499999999
2023-10-23 14:23:04.503000064,0.00032494,-0.001763854,-0.00110994
2023-10-23 14:23:04.516999936,-2.6520000000002097e-05,-0.0016855692,-0.0014284799999999
2023-10-23 14:23:04.530999808,-0.00040575,-0.0023120368,-0.00145776
2023-10-23 14:23:04.544000000,-0.0004225599999999,-0.001867141,-0.0013150999999999
2023-10-23 14:23:04.559000064,-0.0003030099999999,-0.0015946699999999,-0.00115793
2023-10-23 14:23:04.572999936,-0.00029782,-0.0006719999999999,-0.0011471099999999
2023-10-23 14:23:04.586999808,-0.00044893,4.403400000000009e-05,-0.00118857
2023-10-23 14:23:04.601000192,-0.0007419499999999,0.0004482449999999,-0.0014544
2023-10-23 14:23:04.614000128,-0.00089775,0.0004509199999999,-0.0017146099999999
2023-10-23 14:23:04.628000000,-0.00042052,0.000493949,-0.0017356399999999
2023-10-23 14:23:04.641999872,-0.0006527699999999,-1.3246000000000611e-05,-0.0020728299999999
2023-10-23 14:23:04.656000000,-0.00078198,-0.0001814349999999,-0.0021388599999999
2023-10-23 14:23:04.670000128,-0.0008369,9.142600000000035e-05,-0.00212794
2023-10-23 14:23:04.684000000,-0.0009651899999999,0.0001101799999999,-0.00219505
2023-10-23 14:23:04.696999936,-0.0009960899999999,-9.1458e-05,-0.00228437
2023-10-23 14:23:04.711000064,-0.0013287199999999,-0.0001966789999999,-0.0021764199999999
2023-10-23 14:23:04.726000128,-0.00147823,-0.000167312,-0.0021660599999999
2023-10-23 14:23:04.739000064,-0.00142453,-5.395400000000016e-05,-0.0021333499999999
2023-10-23 14:23:04.752999936,-0.0014535599999999,4.704200000000061e-05,-0.00206518
2023-10-23 14:23:04.767000064,-0.0011340399999999,0.0002227739999999,-0.0019096
2023-10-23 14:23:04.780999936,-0.00169969,0.000191843,-0.00221379
2023-10-23 14:23:04.795000064,-0.0018305399999999,8.793499999999992e-05,-0.0021418399999999
2023-10-23 14:23:04.808000000,-0.0020088299999999,-4.021799999999985e-05,-0.0022065599999999
2023-10-23 14:23:04.822000128,-0.00222123,8.447499999999965e-05,-0.00225744
2023-10-23 14:23:04.836000000,-0.0022970699999999,-0.0005174059999999,-0.00179493
2023-10-23 14:23:04.849999872,-0.00215876,-0.000585419,-0.00205164
2023-10-23 14:23:04.864000000,-0.0018665599999999,0.0002595289999999,-0.0017579299999999
2023-10-23 14:23:04.877000192,-0.0017671,0.000468293,-0.00201748
2023-10-23 14:23:04.892000000,-0.0012597399999999,-0.000266441,-0.0020553499999999
2023-10-23 14:23:04.904999936,-0.0015897599999999,-0.000224168,-0.00236413
2023-10-23 14:23:04.918999808,-0.00172914,1.7396999999999725e-05,-0.00243782
2023-10-23 14:23:04.933000192,-0.0015131199999999,-0.000510201,-0.0021468099999999
2023-10-23 14:23:04.948000000,-0.00162042,-0.0001945799999999,-0.00211336
2023-10-23 14:23:04.960999936,-0.00136526,-0.0002255859999999,-0.0015900189999999
2023-10-23 14:23:04.974999808,-0.0013356599999999,0.000962527,-0.0013483209999999
2023-10-23 14:23:04.989000192,-0.001150257,0.0010183149999999,-0.001135881
2023-10-23 14:23:05.002000128,-0.000787789,0.000361051,-0.001068349
2023-10-23 14:23:05.016000000,-0.000778131,0.0001719889999999,-0.0010691169999999
2023-10-23 14:23:05.029999872,-0.0005593479999999,0.000362018,-0.001237437
2023-10-23 14:23:05.044000000,-0.000578674,-0.0001788239999999,-0.0010442949999999
2023-10-23 14:23:05.058000128,-0.0002863179999999,0.0001965299999999,-0.000787154
2023-10-23 14:23:05.072000000,-0.000501663,-3.733200000000016e-05,-0.0006613439999999
2023-10-23 14:23:05.085999872,-0.0003242069999999,0.000190194,-0.000477068
2023-10-23 14:23:05.099000064,-0.000690792,1.860799999999982e-05,-0.0004875883999999
2023-10-23 14:23:05.112999936,-0.0004822199999999,7.590999999999935e-06,-0.0005612742
2023-10-23 14:23:05.127000064,-0.000346885,-0.000258275,-0.000697301
2023-10-23 14:23:05.140999936,-0.000363584,-0.0004650639999999,-0.0006809014
2023-10-23 14:23:05.156000000,-0.0002215339999999,-0.000481382,-0.000769757
2023-10-23 14:23:05.168999936,1.6039999999999718e-05,-0.0009423029999999,-0.000841128
2023-10-23 14:23:05.183000064,-4.164899999999994e-05,-0.000831732,-0.0007723029999999
2023-10-23 14:23:05.196999936,-0.000497052,-0.000701345,-0.0008127399999999
2023-10-23 14:23:05.211000064,-0.000216585,-0.0005529589999999,-0.000684096
2023-10-23 14:23:05.224999936,-0.0004835409999999,-0.000341456,-0.0007810669999999
2023-10-23 14:23:05.237999872,-0.000692246,-7.07769999999993e-05,-0.0007432599999999
2023-10-23 14:23:05.252000000,-0.0007492891999999,0.0001372669999999,-0.0007095809999999
2023-10-23 14:23:05.266000128,-0.00050867257,0.000590727,-0.000676533
2023-10-23 14:23:05.280000000,-0.00070030433,0.000968806,-0.0005721039999999
2023-10-23 14:23:05.293999872,-0.0003647479,0.001104547,-0.000543667
2023-10-23 14:23:05.308000000,-0.0006569669999999,0.0014745689999999,-0.000512607
2023-10-23 14:23:05.322000128,-0.00066975,0.0012795609999999,-0.0004236269999999
2023-10-23 14:23:05.335000064,-0.000597701,0.001335975,-0.0001616199999999
2023-10-23 14:23:05.348999936,-0.000578598,0.0012292954,-4.663000000000063e-05
2023-10-23 14:23:05.362999808,-0.0008438669999999,0.0010395985999999,4.522000000000033e-05
2023-10-23 14:23:05.378000128,-0.000522926,0.000627008,0.0003254519999999
2023-10-23 14:23:05.391000064,-0.000272357,0.000485786,0.000332458
2023-10-23 14:23:05.404999936,-0.0004089079999999,0.0001745029999999,0.0003121129999999
2023-10-23 14:23:05.418999808,-0.000471272,-0.0001975799999999,0.000489612
2023-10-23 14:23:05.432000000,-0.000365186,-0.000268897,0.00061809
2023-10-23 14:23:05.446000128,-0.000313576,-0.000351734,0.000884592
2023-10-23 14:23:05.460000000,-0.0003919769999999,-9.602900000000008e-05,0.000961204
2023-10-23 14:23:05.473999872,-0.000602598,-0.0006897854999999,0.000928682
2023-10-23 14:23:05.488000000,-0.0004513389999999,-0.0008339964,0.0011791709999999
2023-10-23 14:23:05.503000064,-0.000385268,-0.0006672086,0.001604005
2023-10-23 14:23:05.516000000,-0.0006587749999999,-0.0007973804999999,0.001399086
2023-10-23 14:23:05.528999936,-0.000478191,-0.000532489,0.0012556506099999
2023-10-23 14:23:05.543000064,-0.0003280849999999,-0.0001741959999999,0.00102472539
2023-10-23 14:23:05.556999936,-0.0001533699999999,-0.000100197,0.0008225539999999
2023-10-23 14:23:05.571000064,-0.00035573,-0.000836261,0.000281123
2023-10-23 14:23:05.585999872,-0.0003899899999999,-0.0012980919999999,-1.7346000000000115e-05
2023-10-23 14:23:05.599000064,-0.00041292,-0.000989595,2.2095000000000187e-05
2023-10-23 14:23:05.612999936,-0.0001851,-0.0002575429999999,0.0001473749999999
2023-10-23 14:23:05.627000064,-0.0003611599999999,0.00045357,0.0004825089999999
2023-10-23 14:23:05.640999936,-0.00017346,0.0008732199999999,0.000682371
2023-10-23 14:23:05.655000064,-0.00027978,0.001139451,0.000519387
2023-10-23 14:23:05.668999936,1.2859999999999956e-05,0.0003625389999999,0.0003798049999999
2023-10-23 14:23:05.681999872,8.780000000000072e-05,0.000180134,0.000214424
2023-10-23 14:23:05.696000000,-2.37500000000012e-05,-0.000243146,-0.0001399629999999
2023-10-23 14:23:05.710000128,0.00026727,-0.000700668,-7.536999999999995e-05
2023-10-23 14:23:05.724000000,0.0002297,-0.0003583899999999,-7.230900000000044e-05
2023-10-23 14:23:05.737999872,0.00019393,0.0004893849999999,0.000292248
2023-10-23 14:23:05.752999936,-0.0002112499999999,1.4370000000000096e-05,0.0002519119999999
2023-10-23 14:23:05.765000192,-8.060000000000012e-05,0.000104452,0.000230453
2023-10-23 14:23:05.779000064,5.3199999999999775e-05,-3.5298000000000013e-05,0.0001449179999999
2023-10-23 14:23:05.792999936,3.42599999999995e-05,0.000136264,5.515499999999944e-05
2023-10-23 14:23:05.806999808,-0.0001601899999999,-5.77580000000002e-05,-9.0784e-05
2023-10-23 14:23:05.821000192,-0.0001682799999999,0.000104962,-0.0001554089999999
2023-10-23 14:23:05.835000064,0.0001274499999999,0.0002286409999999,-0.0002707569999999
2023-10-23 14:23:05.848999936,0.0001634699999999,-4.5527999999999975e-05,-0.000251532
2023-10-23 14:23:05.862999808,-0.0001968399999999,3.598900000000016e-05,-0.0002447659999999
2023-10-23 14:23:05.877000192,-0.00014405,0.000558252,-0.000173272
2023-10-23 14:23:05.895000064,-0.0005717399999999,0.0004204939999999,-0.0001219329999999
2023-10-23 14:23:05.904999936,-0.00014102,0.000710609,0.000242196
2023-10-23 14:23:05.932000000,-0.0003229499999999,0.0005260449999999,0.0004058069999999
2023-10-23 14:24:43.374000128,0.019723047,-0.003005657,-0.0015367419999999
2023-10-23 14:24:43.433000192,-0.170370797,0.010279378,0.0300346399999999
2023-10-23 14:24:43.447000064,0.0089243999999999,0.022445312,0.00633952
2023-10-23 14:24:43.456999936,0.0036406,0.0092604499999999,0.0050266399999999
2023-10-23 14:24:43.470000128,0.0063153999999999,0.01110027,0.0075241
2023-10-23 14:24:43.483000064,0.0074117999999999,0.00881403,0.0080165099999999
2023-10-23 14:24:43.496999936,0.0092129999999999,0.00649371,0.00902233
2023-10-23 14:24:43.509999872,0.0097812999999999,0.00334291,0.0098693599999999
2023-10-23 14:24:43.528000000,0.0100845999999999,0.0007248599999999,0.00993866
2023-10-23 14:24:43.536999936,0.01036488,-0.0018312399999999,0.01053043
2023-10-23 14:24:43.552000000,0.0090646999999999,-0.00360396,0.0095944399999999
2023-10-23 14:24:43.564999936,0.00734086,-0.0039989599999999,0.0077949999999999
2023-10-23 14:24:43.578000128,0.00607196,-0.00517721,0.0069928
2023-10-23 14:24:43.592000000,0.0045529399999999,-0.00613288,0.0057050999999999
2023-10-23 14:24:43.605999872,0.00339022,-0.00711648,0.0042931999999999
2023-10-23 14:24:43.620999936,0.0028507499999999,-0.0076645499999999,0.0029485999999999
2023-10-23 14:24:43.636000000,0.0030093799999999,-0.0074372699999999,0.0009456
2023-10-23 14:24:43.644999936,0.0030222999999999,-0.0067694399999999,-0.0014483
2023-10-23 14:24:43.660000000,0.0028154,-0.00534685,-0.0034017999999999
2023-10-23 14:24:43.673000192,0.0023202599999999,-0.0035856599999999,-0.0047275999999999
2023-10-23 14:24:43.686000128,0.00118691,-0.001087077,-0.0041029
2023-10-23 14:24:43.700999936,0.0007813299999999,0.001182107,-0.0042702
2023-10-23 14:24:43.714999808,-0.0002985399999999,0.0036565599999999,-0.0033559
2023-10-23 14:24:43.729000192,-0.0007577399999999,0.00752368,-0.0022736999999999
2023-10-23 14:24:43.742000128,-0.00099122,0.0088847999999999,-0.0019854
2023-10-23 14:24:43.756999936,-0.00036063,0.00858642,-0.0019347999999999
2023-10-23 14:24:43.770999808,0.0020287299999999,0.0056031399999999,-0.000824
2023-10-23 14:24:43.785000192,0.00344385,0.00321714,0.0003342999999999
2023-10-23 14:24:43.799000064,0.0036721599999999,0.0017139099999999,0.0014476
2023-10-23 14:24:43.812000000,0.00236018,0.0008192399999999,0.0014708999999999
2023-10-23 14:24:43.826999808,0.00133065,-0.00070846,0.0013809999999999
2023-10-23 14:24:43.841000192,0.0008745799999999,-0.00241157,0.0008239
2023-10-23 14:24:43.854000128,0.0010268099999999,-0.0039853799999999,-0.0004004999999999
2023-10-23 14:24:43.868000000,0.00136474,-0.0051418999999999,-0.0020035
2023-10-23 14:24:43.882999808,0.0017276599999999,-0.00655781,-0.0040211
2023-10-23 14:24:43.896000000,0.0022893699999999,-0.0069462199999999,-0.0047557999999999
2023-10-23 14:24:43.908999936,0.0038937999999999,-0.00730667,-0.0053560799999999
2023-10-23 14:24:43.923000064,0.00605872,-0.0087516999999999,-0.005444
2023-10-23 14:24:43.936999936,0.007825,-0.0092083822,-0.0071689499999999
2023-10-23 14:24:43.951000064,0.0089477429999999,-0.0090514578,-0.00901112
2023-10-23 14:24:43.964999936,0.008436223,-0.00547155,-0.0102217599999999
2023-10-23 14:24:43.979000064,0.006170426,-0.0002183799999999,-0.00944723
2023-10-23 14:24:43.992999936,0.003229938,0.0059708109999999,-0.0082373999999999
2023-10-23 14:24:44.007000064,0.0006642599999999,0.0088647568,-0.0068088899999999
2023-10-23 14:24:44.022000128,-0.0004906199999999,0.0113903422,-0.0058674199999999
2023-10-23 14:24:44.035000064,0.0001946299999999,0.01015699,-0.00490542
2023-10-23 14:24:44.048999936,0.00240009,0.00851012,-0.0036378499999999
2023-10-23 14:24:44.063000064,0.0035247999999999,0.00747121,-0.0015484899999999
2023-10-23 14:24:44.076999936,0.00346917,0.0063092099999999,0.0006289899999999
2023-10-23 14:24:44.091000064,0.00330019,0.00707333,0.0015128199999999
2023-10-23 14:24:44.104999936,0.00234316,0.00814062,0.0042547299999999
2023-10-23 14:24:44.119000064,0.0023783699999999,0.0090383399999999,0.00884345
2023-10-23 14:24:44.132999936,0.00295271,0.00913,0.01205329
2023-10-23 14:24:44.147000064,0.00374851,0.00568432,0.0094753599999999
2023-10-23 14:24:44.160999936,0.0035810799999999,0.0028813699999999,0.00464108
2023-10-23 14:24:44.175000064,0.00351364,0.00025549,0.00099475
2023-10-23 14:24:44.188999936,0.0033739199999999,-0.00136782,-0.0004427899999999
2023-10-23 14:24:44.203000064,0.00312388,-0.0019726999999999,-0.00155302
2023-10-23 14:24:44.216000000,0.00262971,-0.00183789,-0.00349448
2023-10-23 14:24:44.230000128,0.0014454299999999,-0.0018501299999999,-0.0057777799999999
2023-10-23 14:24:44.244000000,-0.00086485,-0.00198434,-0.0079731099999999
2023-10-23 14:24:44.259000064,-0.0033412599999999,-0.00183722,-0.00930298
2023-10-23 14:24:44.272000000,-0.00513567,-0.00114024,-0.01068222
2023-10-23 14:24:44.286000128,-0.0051991399999999,-0.00078021,-0.00991477
2023-10-23 14:24:44.300000000,-0.0042842599999999,-0.0017198499999999,-0.0093010519999999
2023-10-23 14:24:44.312999936,-0.00291539,-0.00251963,-0.00874741
2023-10-23 14:24:44.326999808,-0.00220456,-0.0029801099999999,-0.008223034
2023-10-23 14:24:44.341000192,-0.0024645499999999,-0.00112028,-0.0075302139999999
2023-10-23 14:24:44.356000000,-0.0018956,-0.00070799,-0.0072540999999999
2023-10-23 14:24:44.368999936,-0.00102394,-0.0010787899999999,-0.00674027
2023-10-23 14:24:44.382999808,-0.0002929199999999,-0.0025633899999999,-0.0059130599999999
2023-10-23 14:24:44.397000192,-0.0004507699999999,-0.00282744,-0.00539991
2023-10-23 14:24:44.411000064,-0.0010853899999999,-0.0028975799999999,-0.0054311699999999
2023-10-23 14:24:44.424999936,-0.00147787,-0.00106931,-0.00475081
2023-10-23 14:24:44.438999808,-0.0016206199999999,0.00023774,-0.0031561899999999
2023-10-23 14:24:44.454999808,-0.0015474499999999,-9.010000000000268e-05,-0.00227751
2023-10-23 14:24:44.467000064,-0.00117758,-0.0026179099999999,-0.00194794
2023-10-23 14:24:44.480000000,-0.0007285,-0.00489199,-0.0026924899999999
2023-10-23 14:24:44.493999872,-0.0004050199999999,-0.0070765499999999,-0.00373725
2023-10-23 14:24:44.508000000,-0.001208,-0.00662762,-0.0029422599999999
2023-10-23 14:24:44.523000064,-0.0031317399999999,-0.00475057,-0.0023684399999999
2023-10-23 14:24:44.536999936,-0.003879942,-0.0032129,-0.00155863
2023-10-23 14:24:44.548999936,-0.003631738,-0.0028100099999999,-0.00108205
2023-10-23 14:24:44.564000000,-0.0033455428,-0.00358481,-0.00131288
2023-10-23 14:24:44.576999936,-0.0030279182,-0.0031349999999999,-0.00067166
2023-10-23 14:24:44.591000064,-0.0034623979999999,-0.00223595,0.00071766
2023-10-23 14:24:44.604999936,-0.002896011,-0.00217702,0.0019564799999999
2023-10-23 14:24:44.620999936,-0.00221353,-0.0022474009999999,0.00228042
2023-10-23 14:24:44.634000128,-0.00092413,-0.002364649,0.0021988299999999
2023-10-23 14:24:44.647000064,0.00047266,-0.0032884999999999,0.00160124
2023-10-23 14:24:44.660999936,0.0012021099999999,-0.003781183,0.0008798199999999
2023-10-23 14:24:44.675000064,0.00096973,-0.0027507309999999,0.00026116
2023-10-23 14:24:44.690000128,0.0014539529999999,-0.001362052,0.0007913399999999
2023-10-23 14:24:44.703000064,0.002413886,-0.0004846329999999,0.00165193
2023-10-23 14:24:44.716999936,0.0021783189999999,0.000162052,0.00144256
2023-10-23 14:24:44.731000064,0.002365909,-0.000446163,0.00166091
2023-10-23 14:24:44.744000000,0.0022432678,-0.001204526,0.0012970199999999
2023-10-23 14:24:44.757999872,0.0018200002,-0.000395908,0.00091584
2023-10-23 14:24:44.772999936,0.0011304919999999,0.000533957,0.0010097599999999
2023-10-23 14:24:44.787000064,0.000645643,0.000152592,0.00130872
2023-10-23 14:24:44.801000192,0.000210128,-0.0002892859999999,0.0011697599999999
2023-10-23 14:24:44.813999872,0.0003108799999999,-0.000613405,0.0008476499999999
2023-10-23 14:24:44.828000000,0.000721367,-0.001220857,0.0004522399999999
2023-10-23 14:24:44.842000128,0.000998952,-0.002558737,2.111999999999948e-05
2023-10-23 14:24:44.856000000,0.0005996989999999,-0.00364061,0.00033177
2023-10-23 14:24:44.869999872,-0.000432092,-0.0025461299999999,0.0008091699999999
2023-10-23 14:24:44.884000000,-0.0009223119999999,-0.00113536,0.00181951
2023-10-23 14:24:44.897000192,-0.0007085959999999,-0.0001405199999999,0.0022146299999999
2023-10-23 14:24:44.911000064,-4.784500000000035e-05,-0.00134993,0.0021907
2023-10-23 14:24:44.924999936,0.00138506,-0.0022666299999999,0.0019301099999999
2023-10-23 14:24:44.938999808,0.002433162,-0.00254656,0.00194677
2023-10-23 14:24:44.953999872,0.002297077,-0.0022331499999999,0.00202389
2023-10-23 14:24:44.967000064,0.0015811899999999,-0.001426,0.0020432499999999
2023-10-23 14:24:44.980999936,0.00129743,-0.0014740999999999,0.0024169399999999
2023-10-23 14:24:44.994999808,0.0014740399999999,-0.00149064,0.00345029
2023-10-23 14:24:45.008999936,0.0015899399999999,-0.00069036,0.00388658
2023-10-23 14:24:45.023000064,0.00212578,-0.0012496999999999,0.00413807
2023-10-23 14:24:45.036999936,0.00215345,-0.00234485,0.0036856299999999
2023-10-23 14:24:45.049999872,0.0018617199999999,-0.0030949599999999,0.00292102
2023-10-23 14:24:45.064000000,0.00066901,-0.00230226,0.0024391699999999
2023-10-23 14:24:45.078000128,-0.0011794299999999,-0.00119664,0.00274759
2023-10-23 14:24:45.092000000,-0.0025279399999999,-7.575999999999417e-05,0.0032118529999999
2023-10-23 14:24:45.107000064,-0.00419718,0.0010135899999999,0.0029483079999999
2023-10-23 14:24:45.120999936,-0.00533426,0.00040737,0.002240598
2023-10-23 14:24:45.134000128,-0.006142188,-0.00103914,0.0015613394
2023-10-23 14:24:45.147000064,-0.006745815,-0.00196662,0.000862455
2023-10-23 14:24:45.161999872,-0.007464627,-0.0035082999999999,-0.0013000037
2023-10-23 14:24:45.176000000,-0.0067614899999999,-0.0034683599999999,-0.0028165576999999
2023-10-23 14:24:45.191000064,-0.0072053099999999,-0.0031218,-0.003433221
2023-10-23 14:24:45.204000000,-0.00544702,-0.00233465,-0.002364375
2023-10-23 14:24:45.217999872,-0.0036863,-0.00174072,-0.0010379559999999
2023-10-23 14:24:45.232000000,-0.0033411299999999,-0.00159689,-0.0002425399999999
2023-10-23 14:24:45.244999936,-0.0027883299999999,-0.0019749699999999,0.000805732
2023-10-23 14:24:45.259000064,-0.0024145399999999,-0.00288621,0.001446002
2023-10-23 14:24:45.273999872,-0.00213834,-0.0042282299999999,0.0013592349999999
2023-10-23 14:24:45.287000064,-0.0023769699999999,-0.0056457999999999,0.000948751
2023-10-23 14:24:45.301000192,-0.00242152,-0.00725735,0.0010074069999999
2023-10-23 14:24:45.315000064,-0.0013625299999999,-0.0089111799999999,0.001217534
2023-10-23 14:24:45.328999936,0.0006118599999999,-0.00881147,-2.9643000000000204e-05
2023-10-23 14:24:45.342999808,0.0030653299999999,-0.0093622,-0.0003522259999999
2023-10-23 14:24:45.358000128,0.0041701499999999,-0.0080087,-0.0001409799999999
2023-10-23 14:24:45.371000064,0.00246015,-0.0060771999999999,0.000231195
2023-10-23 14:24:45.384000000,9.044999999999886e-05,-0.0034649999999999,0.0009024099999999
2023-10-23 14:24:45.398000128,-0.00032555,-0.0005051,0.001690775
2023-10-23 14:24:45.412000000,0.00111252,0.002251,0.003450731
2023-10-23 14:24:45.426000128,0.0021397699999999,0.0022887999999999,0.0033751989999999
2023-10-23 14:24:45.440999936,0.0033469599999999,0.0019339,0.000876691
2023-10-23 14:24:45.454999808,0.00397371,0.0022651999999999,-0.001186267
2023-10-23 14:24:45.468000000,0.00438587,0.0029181,-0.000218468
2023-10-23 14:24:45.480999936,0.00464114,0.0039335,0.000982262
2023-10-23 14:24:45.494999808,0.0056987899999999,0.0050191999999999,0.003326181
2023-10-23 14:24:45.508999936,0.006148234,0.0066092,0.0033517689999999
2023-10-23 14:24:45.525000192,0.0057584959999999,0.00966794,0.00330286
2023-10-23 14:24:45.536999936,0.004846334,0.0121676699999999,0.0039540899999999
2023-10-23 14:24:45.551000064,0.004071683,0.01265741,0.00422958
2023-10-23 14:24:45.564999936,0.004350643,0.0120262999999999,0.0033651199999999
2023-10-23 14:24:45.578000128,0.00492011,0.0108791099999999,0.00267031
2023-10-23 14:24:45.592000000,0.0052063299999999,0.009029,0.0019394499999999
2023-10-23 14:24:45.607000064,0.0052103099999999,0.00784481,0.00193799
2023-10-23 14:24:45.620999936,0.00543412,0.0058117999999999,0.00195917
2023-10-23 14:24:45.634000128,0.0046854099999999,0.0040883,0.0020926299999999
2023-10-23 14:24:45.648000000,0.00369787,0.0023958,0.0024290299999999
2023-10-23 14:24:45.661999872,0.0029745399999999,0.00082654,0.0030744899999999
2023-10-23 14:24:45.676000000,0.0023237099999999,-0.00063478,0.00334228
2023-10-23 14:24:45.691000064,0.0023024099999999,-0.0019361599999999,0.0036438899999999
2023-10-23 14:24:45.704000000,0.00267686,-0.00261202,0.00321773
2023-10-23 14:24:45.716999936,0.0027694399999999,-0.0025758999999999,0.0029414999999999
2023-10-23 14:24:45.731000064,0.00226135,-0.00201722,0.00318016
2023-10-23 14:24:45.744999936,0.0012771099999999,-0.0010425399999999,0.0042672799999999
2023-10-23 14:24:45.759000064,0.0002978699999999,-0.00039471,0.00419049
2023-10-23 14:24:45.775000064,-0.0003926499999999,0.00023356,0.0040188099999999
2023-10-23 14:24:45.788999936,-0.00010427,-0.00022099,0.0032085199999999
2023-10-23 14:24:45.802000128,0.00027146,6.867000000000331e-05,0.00251991
2023-10-23 14:24:45.816000000,0.0001271299999999,0.0004587499999999,0.00133764
2023-10-23 14:24:45.828000000,-0.0010585899999999,0.00133895,0.00114563
2023-10-23 14:24:45.842000128,-0.0017529499999999,0.0017926799999999,-0.0001918
2023-10-23 14:24:45.857000192,-0.00132311,0.00247606,-0.00048639
2023-10-23 14:24:45.869999872,-0.00100825,0.0031863199999999,-0.0003340599999999
2023-10-23 14:24:45.884999936,-0.0010968899999999,0.00331215,-0.0001247999999999
2023-10-23 14:24:45.898000128,-0.00176318,0.003598643,-0.00042694
2023-10-23 14:24:45.912000000,-0.0017946299999999,0.0031377489999999,-0.00058119
2023-10-23 14:24:45.926000128,-0.00110865,0.002557267,-0.0009044599999999
2023-10-23 14:24:45.940999936,-0.0008813899999999,0.0016872423,-0.00153208
2023-10-23 14:24:45.954999808,-0.00098194,0.0010099749,-0.0010557899999999
2023-10-23 14:24:45.968000000,-0.0009486299999999,0.0007541398,-0.00110832
2023-10-23 14:24:45.982000128,-0.00019021,0.0002981149999999,-0.0015394999999999
2023-10-23 14:24:45.996000000,0.0010845599999999,-0.0002567139999999,-0.0012985499999999
2023-10-23 14:24:46.008999936,0.0013322899999999,0.0003338239999999,-0.00128243
2023-10-23 14:24:46.025000192,0.00107259,0.001797438,-0.0011537199999999
2023-10-23 14:24:46.038000128,0.0001267799999999,0.005066899,0.0005553499999999
2023-10-23 14:24:46.052000000,-0.00033618,0.006982092,0.0023273
2023-10-23 14:24:46.064999936,-0.0002053399999999,0.00799021,0.0030501299999999
2023-10-23 14:24:46.079000064,0.00052204,0.00733519,0.0026854999999999
2023-10-23 14:24:46.094000128,0.0010600799999999,0.00835669,0.0035719599999999
2023-10-23 14:24:46.108000000,0.00069596,0.0094407799999999,0.00455699
2023-10-23 14:24:46.120999936,0.00029722,0.0104344,0.0057758399999999
2023-10-23 14:24:46.135000064,0.0009194499999999,0.00982238,0.0055117
2023-10-23 14:24:46.148000000,0.00216014,0.0077839099999999,0.00476058
2023-10-23 14:24:46.161999872,0.0025211499999999,0.00566507,0.0038539999999999
2023-10-23 14:24:46.176000000,0.0026734999999999,0.00456165,0.0030025999999999
2023-10-23 14:24:46.192000000,0.00256114,0.00415161,0.0030769
2023-10-23 14:24:46.204000000,0.00244163,0.00295484,0.0022078999999999
2023-10-23 14:24:46.216999936,0.0026164,0.0009799399999999,0.0012401999999999
2023-10-23 14:24:46.231000064,0.0023768899999999,-0.00117984,0.0003364
2023-10-23 14:24:46.244999936,0.00180285,-0.0025915999999999,-0.0005341999999999
2023-10-23 14:24:46.260000000,0.0009721099999999,-0.0034732,-0.0006373999999999
2023-10-23 14:24:46.273999872,0.0005152599999999,-0.0044983399999999,-0.0012484999999999
2023-10-23 14:24:46.288000000,-2.138999999999613e-05,-0.00443308,-0.0018871
2023-10-23 14:24:46.301000192,-0.0008552799999999,-0.0047810299999999,-0.0022506
2023-10-23 14:24:46.315000064,-0.00812686,-0.00407341,-0.0121722599999999
2023-10-23 14:24:46.328999936,-0.0033790699999999,-0.0071040099999999,-0.01008383
2023-10-23 14:24:46.342999808,-0.0055368199999999,-0.0096678099999999,-0.00271429
2023-10-23 14:24:46.358000128,-0.00111073,-0.0037436399999999,-0.0030163299999999
2023-10-23 14:24:46.371000064,-0.0081129299999999,-0.0018412299999999,-0.0037301299999999
2023-10-23 14:24:46.384999936,-0.00582877,0.00097113,-0.0019058799999999
2023-10-23 14:24:46.398999808,-0.0028192899999999,0.0002910199999999,0.0016991799999999
2023-10-23 14:24:46.413000192,0.00053976,-0.0008719,0.00427723
2023-10-23 14:24:46.427000064,0.0008932899999999,-0.0022632099999999,0.0034503999999999
2023-10-23 14:24:46.440999936,0.0006791999999999,-0.00394892,0.00068737
2023-10-23 14:24:46.453999872,0.00203839,-0.0048968299999999,0.0005521899999999
2023-10-23 14:24:46.468000000,0.0027797999999999,-0.00364474,0.0016357099999999
2023-10-23 14:24:46.482000128,0.00191535,-0.00077551,0.00278238
2023-10-23 14:24:46.496000000,0.0012201899999999,0.0024795599999999,0.00368567
2023-10-23 14:24:46.509999872,0.00157436,0.00329982,0.0035647899999999
2023-10-23 14:24:46.524000000,0.0019483599999999,0.0009742399999999,0.00087441
2023-10-23 14:24:46.538000128,-0.0075228399999999,-0.0019887299999999,-0.0148269
2023-10-23 14:24:46.551000064,-0.0022343299999999,-0.00583556,-0.01109409
2023-10-23 14:24:46.564999936,-0.0010738799999999,-0.0023121299999999,-0.00209655
2023-10-23 14:24:46.579000064,-0.00357446,0.0018902499999999,-0.0057783899999999
2023-10-23 14:24:46.592999936,-0.0060589,0.0009593599999999,-0.0042440099999999
2023-10-23 14:24:46.607000064,-0.0041379,0.0044246699999999,-0.00401503
2023-10-23 14:24:46.621999872,-0.0026279299999999,0.00252633,-0.00080815
2023-10-23 14:24:46.635000064,-0.0014574,0.0018272,-0.00315978
2023-10-23 14:24:46.648000000,-0.0004496299999999,-0.00091029,-0.0039952599999999
2023-10-23 14:24:46.663000064,0.00015917,-0.0032658199999999,-0.0050804
2023-10-23 14:24:46.676000000,-0.00017497,-0.00367716,-0.0053087499999999
2023-10-23 14:24:46.691000064,-0.00177772,-0.0030836599999999,-0.00468442
2023-10-23 14:24:46.704000000,-0.00309243,-0.00242904,-0.00480086
2023-10-23 14:24:46.719000064,-0.0034659029999999,-0.0028775,-0.00432064
2023-10-23 14:24:46.732000000,-0.003688117,-0.0028239699999999,-0.0042972699999999
2023-10-23 14:24:46.746000128,-0.0036678289999999,-0.00306583,-0.00331088
2023-10-23 14:24:46.760999936,-0.003901479,-0.00251695,-0.0032037
2023-10-23 14:24:46.773999872,-0.003442167,-0.0017439999999999,-0.0026881199999999
2023-10-23 14:24:46.788999936,-0.00291544,-0.0007729999999999,-0.002972318
2023-10-23 14:24:46.802000128,-0.002426975,-0.00082005,-0.002994193
2023-10-23 14:24:46.815000064,-0.0013016199999999,-0.0004619399999999,-0.002436323
2023-10-23 14:24:46.828999936,-0.00070359,-0.00033175,-0.0022584968
2023-10-23 14:24:46.844000000,-0.0001096399999999,-0.0001412799999999,-0.0021251812
2023-10-23 14:24:46.858000128,-0.0001370599999999,4.357999999999966e-05,-0.00237305
2023-10-23 14:24:46.871000064,0.00027659,0.00067415,-0.0017638749999999
2023-10-23 14:24:46.885999872,0.0005030799999999,0.0014012999999999,-0.001940669
2023-10-23 14:24:46.898999808,0.0008795599999999,0.00090404,-0.002331704
2023-10-23 14:24:46.912000000,0.001174394,-0.0001013699999999,-0.00209228
2023-10-23 14:24:46.928000000,0.001485521,-0.00115874,-0.0025675499999999
2023-10-23 14:24:46.940999936,0.001843796,-0.0018107699999999,-0.00317954
2023-10-23 14:24:46.954999808,0.001921723,-0.0012904,-0.00323764
2023-10-23 14:24:46.968000000,0.0018338509999999,-0.0005621929999999,-0.0027412599999999
2023-10-23 14:24:46.982000128,0.001393002,0.0001279369999999,-0.00230627
2023-10-23 14:24:46.996000000,0.00107603281,0.0001484939999999,-0.0021186399999999
2023-10-23 14:24:47.010999808,0.00103960719,-0.000795327,-0.00187236
2023-10-23 14:24:47.024000000,0.0010613709999999,-0.0007519639999999,-0.00190996
2023-10-23 14:24:47.038000128,0.001278618,-0.001239718,-0.0009403299999999
2023-10-23 14:24:47.052000000,0.000827029,-0.001136081,-0.00093257
2023-10-23 14:24:47.064999936,0.00069328,-0.0008273479999999,-0.00079889
2023-10-23 14:24:47.079000064,0.0008568579999999,-0.000747016,-0.00069976
2023-10-23 14:24:47.094000128,0.001486003,-0.0003621049999999,-0.0001463999999999
2023-10-23 14:24:47.108000000,0.001843228,-0.0007326989999999,-0.0002293499999999
2023-10-23 14:24:47.121999872,0.0020575859999999,-0.001259144,-2.20600000000043e-05
2023-10-23 14:24:47.134000128,0.00186868,-0.0018907651,0.0005023499999999
2023-10-23 14:24:47.148000000,0.00157578,-0.0023773349,0.00051136
2023-10-23 14:24:47.163000064,0.0017380899999999,-0.003140315,0.0004839199999999
2023-10-23 14:24:47.176999936,0.00120578,-0.003391607,0.00086793
2023-10-23 14:24:47.190000128,0.0010618499999999,-0.0042431139999999,0.00042885
2023-10-23 14:24:47.204000000,0.0005589099999999,-0.00479024,-6.578000000000139e-05
2023-10-23 14:24:47.217999872,0.00044077,-0.0060716999999999,-0.0003782
2023-10-23 14:24:47.232000000,0.00070063,-0.0070515199999999,-0.0004231599999999
2023-10-23 14:24:47.246000128,-0.00022263,-0.00737401,-0.0006422099999999
2023-10-23 14:24:47.260999936,-0.0012410599999999,-0.00636325,0.0002639699999999
2023-10-23 14:24:47.273999872,-0.00218298,-0.0051859599999999,0.0008683999999999
2023-10-23 14:24:47.288000000,-0.0028223099999999,-0.0037195699999999,0.00110505
2023-10-23 14:24:47.302000128,-0.00275111,-0.0037580499999999,0.00112066
2023-10-23 14:24:47.316000000,-0.002276369,-0.00415915,7.57199999999944e-05
2023-10-23 14:24:47.329999872,-0.00209161,-0.00458911,-0.0004382299999999
2023-10-23 14:24:47.344000000,-0.0024701909999999,-0.0045345399999999,-0.00064774
2023-10-23 14:24:47.357000192,-0.002774576,-0.00533851,-0.0006888899999999
2023-10-23 14:24:47.372000000,-0.002934322,-0.0055146199999999,-0.00032283
2023-10-23 14:24:47.385999872,-0.0032146099999999,-0.0065493699999999,-8.799999999947739e-07
2023-10-23 14:24:47.398999808,-0.003047434,-0.00804836,0.0008522199999999
2023-10-23 14:24:47.413000192,-0.003576558,-0.00902799,0.00209628
2023-10-23 14:24:47.427000064,-0.0039908399999999,-0.0109440999999999,0.0035357299999999
2023-10-23 14:24:47.440999936,-0.00175542,-0.0110522,0.00106811
2023-10-23 14:24:47.454999808,0.00203066,-0.0106450999999999,-0.00275743
2023-10-23 14:24:47.469000192,0.0022451599999999,-0.0107045,-0.0040483299999999
2023-10-23 14:24:47.483000064,-0.00021899,-0.0074305,-0.00341185
2023-10-23 14:24:47.496000000,-0.00404652,-0.0031942999999999,-0.00095751
2023-10-23 14:24:47.510999808,-0.0069474799999999,0.0011219,0.0014874399999999
2023-10-23 14:24:47.524000000,-0.00596996,0.0053524999999999,0.00140507
2023-10-23 14:24:47.538000128,-0.00260561,0.0089270999999999,-8.422999999999764e-05
2023-10-23 14:24:47.552000000,-0.0013053199999999,0.0112592,-0.00103749
2023-10-23 14:24:47.565999872,-0.00239786,0.0146223999999999,-0.0005676499999999
2023-10-23 14:24:47.580000000,-0.0036688,0.0168047,0.0007498999999999
2023-10-23 14:24:47.594000128,-0.00407517,0.01689242,0.00195312
2023-10-23 14:24:47.607000064,-0.0032369599999999,0.0151920899999999,0.0021897999999999
2023-10-23 14:24:47.621999872,-0.00149909,0.01067903,0.0013792399999999
2023-10-23 14:24:47.636000000,-7.903000000000077e-05,0.0081027699999999,0.00134593
2023-10-23 14:24:47.648999936,0.00204953,0.00468972,0.0007625599999999
2023-10-23 14:24:47.663000064,0.00421599,0.00174312,-0.0001809699999999
2023-10-23 14:24:47.676000000,0.00489557,-0.0009470899999999,-0.00065729
2023-10-23 14:24:47.691000064,0.0043517899999999,-0.0021816799999999,-0.0010106099999999
2023-10-23 14:24:47.704000000,0.00340849,-0.00149122,-0.00101924
2023-10-23 14:24:47.719000064,0.0022443699999999,9.82999999999956e-05,-0.0003602699999999
2023-10-23 14:24:47.732999936,0.0008265299999999,0.00224475,0.00030779
2023-10-23 14:24:47.746000128,-0.00069433,0.0047295099999999,0.0015275099999999
2023-10-23 14:24:47.760000000,-0.0019829799999999,0.00603639,0.00229563
2023-10-23 14:24:47.773999872,-0.0030695799999999,0.0063660199999999,0.0021834599999999
2023-10-23 14:24:47.788000000,-0.00272523,0.00526388,0.0010405199999999
2023-10-23 14:24:47.801000192,-0.00108723,0.0028409,-0.00014097
2023-10-23 14:24:47.816000000,-0.0001243199999999,0.0014252999999999,-0.0007110199999999
2023-10-23 14:24:47.828999936,0.0011995299999999,8.363999999999941e-05,-0.00047786
2023-10-23 14:24:47.844000000,0.00254028,-0.0009368799999999,-2.8709999999997765e-05
2023-10-23 14:24:47.857000192,0.0025130499999999,-0.00090167,0.0003242099999999
2023-10-23 14:24:47.871000064,0.00232795,-0.00046163,0.00101262
2023-10-23 14:24:47.885999872,0.0024371099999999,-0.0005976799999999,0.0016083199999999
2023-10-23 14:24:47.900000000,0.0029222,-0.0006425499999999,0.0020858399999999
2023-10-23 14:24:47.912000000,0.00325423,-0.0006037899999999,0.00167174
2023-10-23 14:24:47.926000128,0.0032209799999999,4.799999999999249e-06,0.0013423499999999
2023-10-23 14:24:47.940999936,0.00268193,0.00040273,0.0007979899999999
2023-10-23 14:24:47.954999808,-0.00442972,0.00077104,-0.01373555
2023-10-23 14:24:47.969000192,0.0020615499999999,-0.00011349,0.00337754
2023-10-23 14:24:47.982000128,0.00033445,0.00468837,0.0043180599999999
2023-10-23 14:24:47.996000000,-0.00414719,0.0041496199999999,-0.0004778099999999
2023-10-23 14:24:48.010999808,-0.0024978699999999,0.00263815,-0.00231579
2023-10-23 14:24:48.024000000,0.00077313,0.002171457,0.00142621
2023-10-23 14:24:48.038000128,0.0020433099999999,0.0017544179999999,0.00576977
2023-10-23 14:24:48.052000000,0.0017325599999999,0.002437536,0.0047447399999999
2023-10-23 14:24:48.065999872,0.00164079,0.001324726,0.0024700999999999
2023-10-23 14:24:48.079000064,0.0023195799999999,0.0012858949999999,0.002953065
2023-10-23 14:24:48.092999936,0.0029931999999999,0.001420569,0.0048679499999999
2023-10-23 14:24:48.108000000,0.002941828,0.00178628,0.0058459259999999
2023-10-23 14:24:48.121999872,-0.002401228,0.000237784,-0.006871603
2023-10-23 14:24:48.136000000,0.0012349089999999,-0.001941035,-0.0146863879999999
2023-10-23 14:24:48.148999936,0.004626384,-0.003820953,0.009052316
2023-10-23 14:24:48.164000000,0.000878657,0.0046921523,0.001310867
2023-10-23 14:24:48.176999936,-0.00175333,0.0050650527,0.0023356509999999
2023-10-23 14:24:48.191000064,-0.0028378709999999,0.003321217,0.002081686
2023-10-23 14:24:48.204999936,-0.000338898,0.0055780409999999,0.0016265859999999
2023-10-23 14:24:48.220000000,6.118500000000006e-05,0.0015753399999999,0.001316703
2023-10-23 14:24:48.233999872,0.002403303,0.00130997,0.001360017
2023-10-23 14:24:48.244999936,0.0017869569999999,-0.00022747,0.0009062946
2023-10-23 14:24:48.255000064,0.001983669,-0.0008452699999999,0.0006185734
2023-10-23 14:24:48.268000000,0.0002501999999999,-0.00103681,-0.0002093559999999
2023-10-23 14:24:48.284000000,-0.000361273,-0.00157697,1.6834999999999984e-05
2023-10-23 14:24:48.296999936,-0.0007960709999999,-0.0007612799999999,0.001053097
2023-10-23 14:24:48.332999936,-0.001647358,0.0004367399999999,0.0047191479999999
2023-10-23 14:24:48.345999872,0.0005249269999999,0.0003263199999999,0.0011061429999999
2023-10-23 14:24:48.357000192,0.001194248,-0.0001031699999999,0.0005195579999999
2023-10-23 14:24:48.371000064,0.001788114,-0.0001490799999999,0.000863357
2023-10-23 14:24:48.387000064,0.0015289521,6.148999999999911e-05,0.001045884
2023-10-23 14:24:48.400999936,0.0010264909,0.0005999899999999,0.00162892
2023-10-23 14:24:48.416000000,0.000944068,0.00150301,0.0016461299999999
2023-10-23 14:24:48.431000064,0.0006127569999999,0.0023260899999999,0.0014430799999999
2023-10-23 14:24:48.444999936,0.001096907,0.00202541,0.00090605
2023-10-23 14:24:48.460000000,0.0013662129999999,0.0020309799999999,0.00032739
2023-10-23 14:24:48.473999872,0.00130772,0.0020915799999999,0.0005574299999999
2023-10-23 14:24:48.488000000,0.000639182,0.00238822,0.0004847299999999
2023-10-23 14:24:48.502000128,1.0430999999999982e-05,0.00301126,0.00072037
2023-10-23 14:24:48.516000000,-0.000660444,0.0034314599999999,0.00041549
2023-10-23 14:24:48.530999808,-0.0015483779999999,0.00522075,0.00100861
2023-10-23 14:24:48.543000064,-0.002180156,0.0057226299999999,0.0009446
2023-10-23 14:24:48.556999936,-0.0033021084,0.0079607,0.00175753
2023-10-23 14:24:48.571000064,-0.0040157416,0.01043686,0.00209525
2023-10-23 14:24:48.584999936,-0.005464093,0.0140853899999999,0.0032477799999999
2023-10-23 14:24:48.599000064,-0.006184492,0.01785522,0.0031433
2023-10-23 14:24:48.612999936,-0.0043651099999999,0.0164908299999999,0.0011679399999999
2023-10-23 14:24:48.627000064,-0.00027875,0.0104023,-0.0028103899999999
2023-10-23 14:24:48.640999936,0.00303055,0.0040878,-0.00597404
2023-10-23 14:24:48.655000064,0.0046416,0.0004394,-0.00657347
2023-10-23 14:24:48.668000000,0.004590373,-0.0001197,-0.00574002
2023-10-23 14:24:48.681999872,0.0035907429999999,-0.0002643999999999,-0.005096321
2023-10-23 14:24:48.696000000,0.0037569009,-0.0024061,-0.0053305512
2023-10-23 14:24:48.711000064,0.0034161341,-0.003395,-0.0043990868
2023-10-23 14:24:48.724000000,0.002980723,-0.0038006,-0.004142124
2023-10-23 14:24:48.737999872,0.001669861,-0.0033419999999999,-0.0034705269999999
2023-10-23 14:24:48.750999808,0.001036276,-0.0026178,-0.00228202
2023-10-23 14:24:48.766000128,0.0001365569999999,-0.0020692999999999,-0.0023059099999999
2023-10-23 14:24:48.780000000,-0.0003115269999999,-0.0021309999999999,-0.001541
2023-10-23 14:24:48.795000064,-0.000266177,-0.0023444999999999,-0.0023596399999999
2023-10-23 14:24:48.808000000,-0.0013427769999999,-0.0008938,-0.0035205599999999
2023-10-23 14:24:48.822000128,-0.002142199,-0.000877,-0.0047727699999999
2023-10-23 14:24:48.835000064,-0.001829879,-0.00199425,-0.00493212
2023-10-23 14:24:48.849999872,-0.0008354279999999,-0.00336849,-0.0046091499999999
2023-10-23 14:24:48.864000000,0.000967213,-0.00534893,-0.0038601399999999
2023-10-23 14:24:48.877000192,0.001477619,-0.0045825699999999,-0.00307096
2023-10-23 14:24:48.891000064,0.001939451,-0.0042631,-0.0021425699999999
2023-10-23 14:24:48.904999936,0.001625065,-0.0034576299999999,-0.0015132399999999
2023-10-23 14:24:48.918999808,0.0021516459999999,-0.00297215,9.269999999998724e-06
2023-10-23 14:24:48.934000128,0.002380125,-0.00264467,0.0005690399999999
2023-10-23 14:24:48.947000064,0.00260013,-0.00282319,0.0008506299999999
2023-10-23 14:24:48.960999936,0.00267151,-0.0030206599999999,0.00021763
2023-10-23 14:24:48.974999808,0.00276836,-0.00302982,4.375999999999686e-05
2023-10-23 14:24:48.989000192,0.0025107499999999,-0.0022208199999999,-0.00027224
2023-10-23 14:24:49.003000064,0.0017165599999999,-0.0017027299999999,-0.0008283799999999
2023-10-23 14:24:49.016999936,0.00178736,-0.00220767,-0.00104336
2023-10-23 14:24:49.030999808,0.0017605099999999,-0.0025182199999999,-0.00118751
2023-10-23 14:24:49.044000000,0.0012360399999999,-0.00098149,-0.00088669
2023-10-23 14:24:49.058000128,0.00068386,-0.00037261,-0.0008558299999999
2023-10-23 14:24:49.072000000,0.00078864,6.438000000000277e-05,-0.00035411
2023-10-23 14:24:49.084999936,0.00063335,-0.0006393599999999,-0.0005387099999999
2023-10-23 14:24:49.100000000,0.00080182,-0.00128922,-0.0011962599999999
2023-10-23 14:24:49.114000128,0.0008266799999999,-0.00150999,-0.00097981
2023-10-23 14:24:49.127000064,0.00060098,-0.00098899,-0.0013092799999999
2023-10-23 14:24:49.140999936,0.00039261,-0.0005723599999999,-0.00125349
2023-10-23 14:24:49.155000064,-0.0001070199999999,6.553999999999588e-05,-0.00122432
2023-10-23 14:24:49.168999936,-0.00030643,0.0001326,-0.0008916799999999
2023-10-23 14:24:49.184000000,-5.497999999999614e-05,-0.0002564999999999,-0.0005025999999999
2023-10-23 14:24:49.197999872,-4.83100000000028e-05,-0.0006578399999999,-0.0010002699999999
2023-10-23 14:24:49.211000064,-0.00022337,-0.00064573,-0.00105329
2023-10-23 14:24:49.224999936,-0.00091584,-0.00021467,-0.0014671799999999
2023-10-23 14:24:49.239000064,-0.0012518699999999,-0.0004164799999999,-0.00158178
2023-10-23 14:24:49.252000000,-0.00108824,-0.00080849,-0.0015756699999999
2023-10-23 14:24:49.266000128,-0.0004358899999999,-0.00160463,-0.00140944
2023-10-23 14:24:49.280000000,-0.00033887,-0.0020470699999999,-0.0010102499999999
2023-10-23 14:24:49.295000064,-0.00013579,-0.0023243299999999,-2.1630000000008587e-05
2023-10-23 14:24:49.308000000,-9.477999999999916e-05,-0.00194268,-0.00031892
2023-10-23 14:24:49.322000128,3.968000000000027e-05,-0.00195356,0.00047982
2023-10-23 14:24:49.336000000,1.2470000000000536e-05,-0.0013682,0.0005281999999999
2023-10-23 14:24:49.349999872,-0.00032184,-0.0006107399999999,0.00086932
2023-10-23 14:24:49.364000000,-0.00041666,0.00021751,0.0013336699999999
2023-10-23 14:24:49.377000192,8.41300000000017e-05,-0.00031953,0.0018472699999999
2023-10-23 14:24:49.392000000,0.00095007,-0.00133345,0.00182257
2023-10-23 14:24:49.405999872,0.00114154,-0.0026251899999999,0.0016470999999999
2023-10-23 14:24:49.420999936,0.00074969,-0.0023534799999999,0.0015702099999999
2023-10-23 14:24:49.434000128,0.0002322399999999,-0.00219244,0.00199852
2023-10-23 14:24:49.448000000,-0.00039341,-0.0018108899999999,0.0024042999999999
2023-10-23 14:24:49.460999936,-0.0008364,-0.0016530499999999,0.0018569999999999
2023-10-23 14:24:49.474999808,-0.0013067799999999,-0.00131915,0.00188345
2023-10-23 14:24:49.489000192,-0.00135257,-0.0011123099999999,0.00163069
2023-10-23 14:24:49.503000064,-0.0008743299999999,-0.00149468,0.0012289299999999
2023-10-23 14:24:49.519000064,-0.00028488,-0.0015988899999999,0.0010942099999999
2023-10-23 14:24:49.532000000,-0.00037316,-0.00106808,0.00078053
2023-10-23 14:24:49.545000192,-0.0008757999999999,-0.0002389599999999,0.00108704
2023-10-23 14:24:49.559000064,-0.0015686499999999,0.00052513,0.0016578499999999
2023-10-23 14:24:49.572000000,-0.00178169,0.0015476199999999,0.001383
2023-10-23 14:24:49.585999872,-0.00209463,0.00238951,0.0013143899999999
2023-10-23 14:24:49.600000000,-0.0019494299999999,0.0023252799999999,0.0008755599999999
2023-10-23 14:24:49.614000128,-0.00085932,0.0009355799999999,0.00104544
2023-10-23 14:24:49.628000000,0.0002992199999999,-0.0008488599999999,0.00171096
2023-10-23 14:24:49.640999936,0.0009521499999999,-0.0015944599999999,0.0020306999999999
2023-10-23 14:24:49.655000064,0.00115542,-0.0017175799999999,0.0024277499999999
2023-10-23 14:24:49.668999936,0.0008080999999999,0.0001136899999999,0.00219239
2023-10-23 14:24:49.683000064,0.00016309,0.00125107,0.00221667
2023-10-23 14:24:49.696999936,-0.0002627099999999,0.0023238899999999,0.0018802799999999
2023-10-23 14:24:49.712000000,-0.0002097,0.00114061,0.002308
2023-10-23 14:24:49.724999936,0.0003337199999999,-5.26899999999976e-05,0.0020042699999999
2023-10-23 14:24:49.739000064,0.00073162,-0.0021174,0.00209369
2023-10-23 14:24:49.752999936,0.0007639599999999,-0.0025752099999999,0.0020657799999999
2023-10-23 14:24:49.766000128,0.0002156199999999,-0.00269561,0.0021727499999999
2023-10-23 14:24:49.780000000,-0.0001606599999999,-0.00262671,0.00159909
2023-10-23 14:24:49.793999872,-0.0007983499999999,-0.0026653599999999,0.00132319
2023-10-23 14:24:49.808999936,-0.0013228999999999,-0.002435426,0.0007887999999999
2023-10-23 14:24:49.822000128,-0.00181436,-0.002490898,0.00085765
2023-10-23 14:24:49.836000000,-0.0020818799999999,-0.002257988,0.0008048299999999
2023-10-23 14:24:49.849999872,-0.00220298,-0.0023771649999999,0.0007858269999999
2023-10-23 14:24:49.862999808,-0.0014777599999999,-0.0023465481,0.000106053
2023-10-23 14:24:49.878000128,-0.00147068,-0.0024496408999999,-0.00054621
2023-10-23 14:24:49.892000000,-0.001468346,-0.001854657,-0.0007767399999999
2023-10-23 14:24:49.907000064,-0.0013424309999999,-0.002149808,-0.0010121799999999
2023-10-23 14:24:49.920999936,-0.001336537,-0.0012627329999999,-0.0011860499999999
2023-10-23 14:24:49.934000128,-0.0012973559999999,-0.000612031,-0.00123323
2023-10-23 14:24:49.947000064,-0.001329241,0.000323218,-0.0012038
2023-10-23 14:24:49.960999936,-0.001384098,0.00140479,-0.00168094
2023-10-23 14:24:49.974999808,-0.0015644361999999,0.001815576,-0.0012035899999999
2023-10-23 14:24:49.988000000,-0.0013200541,0.001735007,-0.00124892
2023-10-23 14:24:50.003000064,-0.0012206216999999,0.0017254969999999,-0.0010490099999999
2023-10-23 14:24:50.016999936,-0.000743783,0.0012660447,-0.00025029
2023-10-23 14:24:50.030999808,-0.000119519,-0.0001607886999999,0.00021844
2023-10-23 14:24:50.044000000,-6.62089999999998e-05,-0.00018863,0.0002257199999999
2023-10-23 14:24:50.059000064,2.359599999999986e-05,0.000191081,0.0004893699999999
2023-10-23 14:24:50.072999936,3.952200000000017e-05,0.0009593095,0.0004478499999999
2023-10-23 14:24:50.086999808,-0.000212404,0.0013414245,0.00044241
2023-10-23 14:24:50.100000000,-0.0004160259999999,0.001603212,0.0009038599999999
2023-10-23 14:24:50.114000128,-0.000258468,0.0008885099999999,0.0007586699999999
2023-10-23 14:24:50.128000000,0.00030195,0.000251432,0.0009242199999999
2023-10-23 14:24:50.141999872,0.0003238849999999,-0.0009204199999999,0.00088441
2023-10-23 14:24:50.156000000,0.000289753,-0.00136977,0.0005352299999999
2023-10-23 14:24:50.170000128,0.000171534,-0.0014814219999999,0.000488
2023-10-23 14:24:50.183000064,-4.854100000000004e-05,-0.001674113,0.00065135
2023-10-23 14:24:50.197999872,0.0002377669999999,-0.00142072,-2.788000000000096e-05
2023-10-23 14:24:50.212000000,0.0001879329999999,-0.0009893699999999,0.00027713
2023-10-23 14:24:50.226000128,-8.159599999999975e-05,-0.000861015,0.00037851
2023-10-23 14:24:50.240000000,-0.000248869,-0.000884091,0.0003809999999999
2023-10-23 14:24:50.253999872,-0.000340555,-0.0010921339999999,-0.00012665
2023-10-23 14:24:50.267000064,-0.0003528609999999,-0.000893445,-2.1399999999999544e-05
2023-10-23 14:24:50.280999936,-0.00037962,-0.0009918929999999,-0.00026807
2023-10-23 14:24:50.295000064,-0.000633247,-5.458100000000146e-05,-0.0005475799999999
2023-10-23 14:24:50.308999936,-0.0007761959999999,-0.0001175729999999,-0.00051921
2023-10-23 14:24:50.324000000,-0.000653591,-0.0001177859999999,-0.0003607499999999
2023-10-23 14:24:50.338000128,-0.00043535,-0.0004548869999999,-0.0005936199999999
2023-10-23 14:24:50.351000064,-0.0006647199999999,-0.00049766,-0.0001731799999999
2023-10-23 14:24:50.364999936,-0.0008560319999999,0.0003097729999999,0.0003162899999999
2023-10-23 14:24:50.378000128,-0.0007832009999999,0.001548382,0.00017671
2023-10-23 14:24:50.392000000,-0.00112664,0.0022356269999999,4.896000000000067e-05
2023-10-23 14:24:50.405999872,-0.001160641,0.002480634,0.0001679899999999
2023-10-23 14:24:50.420000000,-0.0007741799999999,0.001163578,0.0005883299999999
2023-10-23 14:24:50.434000128,-0.00046552,0.0002637609999999,0.00073521
2023-10-23 14:24:50.447000064,-0.00026802,-0.0002460539999999,0.00051845
2023-10-23 14:24:50.460999936,-0.0001078099999999,-0.000321164,0.0005767999999999
2023-10-23 14:24:50.476000000,-0.0002950999999999,6.450300000000004e-05,0.00087192
2023-10-23 14:24:50.490000128,-0.0004414899999999,0.000427623,0.00097817
2023-10-23 14:24:50.505000192,-0.00038262,0.000273384,0.00054145
2023-10-23 14:24:50.517999872,-0.00035453,0.0004816119999999,0.000545303
2023-10-23 14:24:50.530999808,-0.0001461199999999,0.0003644126999999,0.0005697409999999
2023-10-23 14:24:50.545000192,-0.00021145,-0.0003805276999999,0.0005247189999999
2023-10-23 14:24:50.559000064,-0.00055425,-0.000655133,0.000135814
2023-10-23 14:24:50.572999936,-0.0002732499999999,-0.001217328,0.0003025959999999
2023-10-23 14:24:50.588000000,-0.0002237999999999,-0.00109804,0.000278291
2023-10-23 14:24:50.601000192,-0.000198,-0.0002463969999999,-0.000266126
2023-10-23 14:24:50.615000064,-0.0003410999999999,-0.000153325,6.820800000000016e-05
2023-10-23 14:24:50.628999936,-0.00031366,-0.0002321849999999,-5.814799999999919e-05
2023-10-23 14:24:50.642999808,-0.0001965899999999,-0.000889461,-0.000259297
2023-10-23 14:24:50.656000000,-5.424000000000054e-05,-0.000578762,0.0001236989999999
2023-10-23 14:24:50.670000128,1.4239999999998698e-05,-0.000356221,-0.00037266
2023-10-23 14:24:50.684000000,0.00013465,-0.0002209229999999,-6.090099999999862e-05
2023-10-23 14:24:50.697999872,7.098999999999994e-05,-0.000345629,-0.000211583
2023-10-23 14:24:50.712000000,0.0001058399999999,0.0002547489999999,-0.0002586719999999
2023-10-23 14:24:50.727000064,-4.3899999999999495e-05,0.000504076,-0.000557445
2023-10-23 14:24:50.740000000,6.240999999999886e-05,0.000180426,-0.000793099
2023-10-23 14:24:50.753999872,2.381000000000258e-05,8.975500000000039e-05,-0.0004476899999999
2023-10-23 14:24:50.768000000,-0.0001388499999999,-0.000409739,-0.00042428
2023-10-23 14:24:50.780999936,-3.447999999999993e-05,-0.000248097,-0.0007681199999999
2023-10-23 14:24:50.796000000,0.0001685899999999,-0.0002986689999999,-0.00055446
2023-10-23 14:24:50.809999872,0.0004194099999999,-0.000838489,-0.0004282399999999
2023-10-23 14:24:50.824000000,0.0005550199999999,-0.0005859619999999,-0.00075156
2023-10-23 14:24:50.838000128,0.0001273799999999,-0.000435298,-0.0001908099999999
2023-10-23 14:24:50.851000064,-0.0002782599999999,0.0001093929999999,-0.00016089
2023-10-23 14:24:50.864999936,-0.00061668,0.001063169,7.408000000000067e-05
2023-10-23 14:24:50.878000128,-0.0006362,0.000980917,0.0006040999999999
2023-10-23 14:24:50.892999936,-0.0002861499999999,8.077999999999905e-06,0.00013347
2023-10-23 14:24:50.907000064,0.00016017,-0.0004549309999999,0.00058406
2023-10-23 14:24:50.920999936,0.0005240499999999,-0.000534361,0.0005478599999999
2023-10-23 14:24:50.934000128,0.0008257999999999,-0.0008240099999999,0.0007186199999999
2023-10-23 14:24:50.948000000,0.00068458,-0.000502292,0.00065401
2023-10-23 14:24:50.961999872,0.0006541099999999,-0.000846958,0.000887663
2023-10-23 14:24:50.976000000,0.00035192,-9.523499999999908e-05,0.0008638429999999
2023-10-23 14:24:50.991000064,-5.3599999999999134e-05,0.000513815,0.00059722
2023-10-23 14:24:51.005000192,-0.00028108,0.0009295989999999,0.000383651
2023-10-23 14:24:51.017999872,-0.0005061399999999,0.0006912129999999,0.0007638239999999
2023-10-23 14:24:51.032000000,-0.00060453,0.0003357259999999,0.0008359739999999
2023-10-23 14:24:51.046000128,-0.0003815399999999,-0.0002666389999999,0.000857021
2023-10-23 14:24:51.060000000,-0.00054961,-0.00040093,0.0009567219999999
2023-10-23 14:24:51.075000064,-0.0004894899999999,-0.0002399789999999,0.001593609
2023-10-23 14:24:51.088000000,-0.0004075699999999,-0.0004737279999999,0.000901117
2023-10-23 14:24:51.101000192,-0.00066992,-0.000316099,0.0012026778
2023-10-23 14:24:51.116000000,-0.0007775799999999,-0.0002553659999999,0.0011929865
2023-10-23 14:24:51.128000000,-0.00062838,0.0001841689999999,0.0008618667
2023-10-23 14:24:51.140999936,-0.00063807,0.000130039,0.000978312
2023-10-23 14:24:51.155000064,-0.0008634099999999,0.0002434459999999,0.000752786
2023-10-23 14:24:51.170000128,-0.00071136,-0.0004829829999999,0.0009373629999999
2023-10-23 14:24:51.181999872,-0.0009909699999999,5.364999999999884e-05,0.0006251619999999
2023-10-23 14:24:51.196000000,-0.0011208099999999,0.000322076,0.00091212
2023-10-23 14:24:51.210000128,-0.00132772,0.0012820589999999,0.0009548539999999
2023-10-23 14:24:51.224000000,-0.00129465,0.001075422,0.0009046949999999
2023-10-23 14:24:51.237999872,-0.0013348099999999,0.000738456,0.001795691
2023-10-23 14:24:51.252999936,-0.00124231,0.000178713,0.001619222
2023-10-23 14:24:51.266000128,-0.0012613199999999,8.825999999999973e-06,0.0017567699999999
2023-10-23 14:24:51.280000000,-0.0014047699999999,7.134199999999941e-05,0.00158313
2023-10-23 14:24:51.292999936,-0.00168457,0.000133441,0.0010735599999999
2023-10-23 14:24:51.306999808,-0.00174337,-1.094000000000095e-06,0.00115555
2023-10-23 14:24:51.321000192,-0.0021288499999999,0.0002898939999999,0.0013842899999999
2023-10-23 14:24:51.336000000,-0.0025251199999999,9.145600000000018e-05,0.00163744
2023-10-23 14:24:51.349999872,-0.00280216,-3.223399999999991e-05,0.0013829899999999
2023-10-23 14:24:51.364000000,-0.0029729199999999,-3.679100000000043e-05,0.00102256
2023-10-23 14:24:51.377000192,-0.00357456,-0.0002241939999999,0.0005222699999999
2023-10-23 14:24:51.391000064,-0.0042297099999999,-0.0001907929999999,-0.00023132
2023-10-23 14:24:51.404000000,-0.0048508199999999,-0.000652487,-0.0008469599999999
2023-10-23 14:24:51.417999872,-0.00516203,-0.0014640249999999,-0.00124958
2023-10-23 14:24:51.432000000,-0.0057245699999999,-0.00221951,-0.00236242
2023-10-23 14:24:51.447000064,-0.0063330799999999,-0.00292102,-0.00334595
2023-10-23 14:24:51.460999936,-0.00734282,-0.0027124299999999,-0.00437461
2023-10-23 14:24:51.474999808,-0.00856974,-0.00260226,-0.004790376
2023-10-23 14:24:51.489000192,-0.0093052599999999,-0.0024121499999999,-0.0044953623
2023-10-23 14:24:51.503000064,-0.01005628,-0.00263818,-0.0049052217
2023-10-23 14:24:51.516000000,-0.0101027,-0.0028826599999999,-0.004520607
2023-10-23 14:24:51.529999872,-0.0116597,-0.00355086,-0.005170223
2023-10-23 14:24:51.544000000,-0.0116518999999999,-0.00413322,-0.00476882
2023-10-23 14:24:51.558000128,-0.0117271999999999,-0.00378473,-0.0051368699999999
2023-10-23 14:24:51.572999936,-0.0133347,-0.00487162,-0.00588116
2023-10-23 14:24:51.585999872,-0.0123998999999999,-0.00509383,-0.00521288
2023-10-23 14:24:51.600000000,-0.0136318,-0.0059098799999999,-0.00607451
2023-10-23 14:24:51.614000128,-0.0160247,-0.00538798,-0.0068396799999999
2023-10-23 14:24:51.628000000,-0.0183467999999999,-0.0034768899999999,-0.00675101
2023-10-23 14:24:51.642999808,-0.0198957,-0.00091277,-0.0069584099999999
2023-10-23 14:24:51.656000000,-0.0191834999999999,0.00094296,-0.00691457
2023-10-23 14:24:51.670000128,-0.0199922,0.0016213199999999,-0.00804829
2023-10-23 14:24:51.683000064,-0.0196476999999999,-0.0003627099999999,-0.00978349
2023-10-23 14:24:51.696999936,-0.0202593,-0.0028687199999999,-0.01036344
2023-10-23 14:24:51.712000000,-0.0200120999999999,-0.00368193,-0.01014885
2023-10-23 14:24:51.727000064,-0.0223924999999999,-0.00267535,-0.0105130999999999
2023-10-23 14:24:51.742000128,-0.0220288,-0.00203412,-0.0100010999999999
2023-10-23 14:24:51.755000064,-0.0219536,-0.0023560899999999,-0.0094152
2023-10-23 14:24:51.768999936,-0.0219310999999999,-0.0024327,-0.0092716999999999
2023-10-23 14:24:51.783000064,-0.0218262,-0.00248872,-0.01055
2023-10-23 14:24:51.798000128,-0.0222838999999999,-0.0019648899999999,-0.0136856999999999
2023-10-23 14:24:51.809999872,-0.0201818,-0.0020020899999999,-0.0147652
2023-10-23 14:24:51.824999936,-0.0203925999999999,-0.00219726,-0.0166872
2023-10-23 14:24:51.838000128,-0.0195419999999999,-0.0026509199999999,-0.0164813999999999
2023-10-23 14:24:51.852000000,-0.0172012999999999,-0.00321121,-0.0143863999999999
2023-10-23 14:24:51.865999872,-0.0172425999999999,-0.0034556599999999,-0.0136819
2023-10-23 14:24:51.880000000,-0.0162792999999999,-0.00290434,-0.0121735
2023-10-23 14:24:51.894000128,-0.0176374,-0.0029398399999999,-0.0121111999999999
2023-10-23 14:24:51.908999936,-0.0182723,-0.0022114999999999,-0.0116118
2023-10-23 14:24:51.923000064,-0.0175589999999999,-0.0013456,-0.0108344999999999
2023-10-23 14:24:51.936000000,-0.0179238,-0.0018095,-0.0099139
2023-10-23 14:24:51.950000128,-0.0178848999999999,-0.0034461999999999,-0.0091286999999999
2023-10-23 14:24:51.964000000,-0.0181405,-0.0054584,-0.0088878
2023-10-23 14:24:51.977999872,-0.0155286,-0.0064334999999999,-0.0067436
2023-10-23 14:24:51.999000064,-0.0165761999999999,-0.00511,-0.0057789999999999
2023-10-23 14:24:52.006000128,-0.0173051,0.0029176,-0.0048970999999999
2023-10-23 14:24:52.019000064,-0.0187874999999999,0.0062538,-0.0047298
2023-10-23 14:24:52.032999936,-0.0191820999999999,0.02169903,-0.0045416
2023-10-23 14:24:52.046999808,-0.0228725,0.0301132199999999,-0.0043475999999999
2023-10-23 14:24:52.061000192,-0.0170559999999999,0.0244402999999999,-0.003544
2023-10-23 14:24:52.076000000,-0.0056321999999999,0.01615605,-0.0008891999999999
2023-10-23 14:24:52.089999872,0.0056301999999999,0.0077410699999999,0.0027904999999999
2023-10-23 14:24:52.104000000,0.0131413,0.00598753,0.0054846
2023-10-23 14:24:52.117000192,0.0155435,0.006414969,0.0068026999999999
2023-10-23 14:24:52.131000064,0.0143081999999999,0.0068366639999999,0.0073014
2023-10-23 14:24:52.144999936,0.0117367,0.0057505149999999,0.0082830999999999
2023-10-23 14:24:52.160000000,0.0080791999999999,0.007342052,0.0078926
2023-10-23 14:24:52.173000192,0.0047998999999999,0.01086612,0.0072774999999999
2023-10-23 14:24:52.187000064,0.0047666,0.0108066099999999,0.0076238
2023-10-23 14:24:52.200999936,0.0067847999999999,0.00942962,0.0076154999999999
2023-10-23 14:24:52.214999808,0.0076247,0.00685325,0.0073838999999999
2023-10-23 14:24:52.229000192,0.0076812,0.0024167,0.0051952
2023-10-23 14:24:52.244000000,0.0070189999999999,-0.00116917,0.004085
2023-10-23 14:24:52.256999936,0.0067495999999999,-0.0039156799999999,0.0041103999999999
2023-10-23 14:24:52.269999872,0.0049019,-0.0077981599999999,0.0044777
2023-10-23 14:24:52.284000000,0.0042554,-0.00937132,0.0050992999999999
2023-10-23 14:24:52.298000128,0.003395,-0.01156456,0.0055824
2023-10-23 14:24:52.312000000,0.0003851999999999,-0.0121301869999999,0.0060434999999999
2023-10-23 14:24:52.325999872,-0.0034446,-0.0097995248,0.0055204
2023-10-23 14:24:52.340000000,-0.0069337999999999,-0.0104739082,0.0058032999999999
2023-10-23 14:24:52.354000128,-0.007858,-0.00980267,0.0053159
2023-10-23 14:24:52.368000000,-0.0087785999999999,-0.00975678,0.0056634999999999
2023-10-23 14:24:52.381999872,-0.0089955,-0.00959393,0.0062050999999999
2023-10-23 14:24:52.396000000,-0.0091314999999999,-0.0096885499999999,0.0069863
2023-10-23 14:24:52.410000128,-0.0093267,-0.00777264,0.006639
2023-10-23 14:24:52.424000000,-0.0104313999999999,-0.0058129499999999,0.0061468
2023-10-23 14:24:52.436999936,-0.0109118999999999,-0.00175513,0.0055082999999999
2023-10-23 14:24:52.451000064,-0.0127274,0.0018229599999999,0.0063855999999999
2023-10-23 14:24:52.464999936,-0.0136509999999999,0.00458511,0.0069142
2023-10-23 14:24:52.479000064,-0.0134984,0.00640828,0.0069328
2023-10-23 14:24:52.492999936,-0.0120968,0.0044534799999999,0.0063432999999999
2023-10-23 14:24:52.506000128,-0.0101642999999999,0.00276529,0.0072029999999999
2023-10-23 14:24:52.520999936,-0.0083253,0.0018525899999999,0.0072726999999999
2023-10-23 14:24:52.533999872,-0.0085868,0.00358893,0.0070705
2023-10-23 14:24:52.548000000,-0.0089788999999999,0.0054677699999999,0.0059195999999999
2023-10-23 14:24:52.562000128,-0.0103153,0.01018866,0.004998
2023-10-23 14:24:52.576999936,-0.0101291,0.01315024,0.0043001
2023-10-23 14:24:52.594000128,-0.0118521,0.016221646,0.0062421
2023-10-23 14:24:52.604000000,-0.0069179999999999,0.009704754,0.0050283
2023-10-23 14:24:52.618000128,-0.0119405999999999,0.02234294,0.0048250999999999
2023-10-23 14:24:52.632000000,-0.0192563,0.03595048,0.0021142999999999
2023-10-23 14:24:52.645999872,-0.0269792,0.0265869799999999,-0.0005300999999999
2023-10-23 14:24:52.660000000,-0.0152936999999999,0.01191225,-0.0003987
2023-10-23 14:24:52.674000128,-0.0050951999999999,-0.0084492999999999,-0.0024625
2023-10-23 14:24:52.688000000,0.0068357999999999,-0.0117089,-0.0061204999999999
2023-10-23 14:24:52.701999872,0.0098084999999999,-0.02602058,-0.0103696
2023-10-23 14:24:52.716000000,0.0127518,-0.0272430799999999,-0.0136740999999999
2023-10-23 14:24:52.730000128,0.0135243999999999,-0.0145797799999999,-0.0182209
2023-10-23 14:24:52.743000064,0.0059874999999999,-0.0048118699999999,-0.0196826999999999
2023-10-23 14:24:52.756999936,0.0005835,0.0030200199999999,-0.0225269999999999
2023-10-23 14:24:52.770999808,-0.0002031,0.0067655,-0.0234038
2023-10-23 14:24:52.785000192,0.0020434,0.00633348,-0.0210396
2023-10-23 14:24:52.799000064,0.0033428999999999,0.00677701,-0.0184092999999999
2023-10-23 14:24:52.812000000,0.0019086,0.0063660999999999,-0.016014
2023-10-23 14:24:52.825999872,0.0009238999999999,0.0038528399999999,-0.0132371
2023-10-23 14:24:52.840000000,-0.0005768,0.0004576999999999,-0.0095608999999999
2023-10-23 14:24:52.854000128,-0.0026394999999999,-0.0034279899999999,-0.0088117
2023-10-23 14:24:52.868000000,-0.0054022,-0.00515136,-0.0067683999999999
2023-10-23 14:24:52.882999808,-0.0083081999999999,-0.0078828799999999,-0.0054838
2023-10-23 14:24:52.896000000,-0.0096346,-0.00949199,-0.0052711999999999
2023-10-23 14:24:52.910000128,-0.0110362999999999,-0.01243604,-0.0059305
2023-10-23 14:24:52.924000000,-0.0094326,-0.0139372295,-0.0059473999999999
2023-10-23 14:24:52.937999872,-0.0073042999999999,-0.0145219805,-0.0065539
2023-10-23 14:24:52.951000064,-0.0050058,-0.01499391,-0.006249
2023-10-23 14:24:52.966000128,-0.0028673999999999,-0.0141492099999999,-0.0063036
2023-10-23 14:24:52.979000064,-0.00067,-0.0136628199999999,-0.0063673999999999
2023-10-23 14:24:52.992999936,-0.0002124999999999,-0.0108438699999999,-0.0064427
2023-10-23 14:24:53.007000064,0.0003858999999999,-0.01147776,-0.0071750999999999
2023-10-23 14:24:53.022000128,0.0021045,-0.0118437299999999,-0.0067770999999999
2023-10-23 14:24:53.033999872,0.0072012999999999,-0.01161837,-0.006061
2023-10-23 14:24:53.048000000,0.0112704,-0.0115233,-0.0041209999999999
2023-10-23 14:24:53.063000064,0.0147488,-0.0077944999999999,-0.0020493999999999
2023-10-23 14:24:53.076000000,0.0116684,0.0002156999999999,-0.0016346
2023-10-23 14:24:53.089999872,0.0061301,0.0089602999999999,-0.0027515999999999
2023-10-23 14:24:53.104000000,0.0001511999999999,0.0162673,-0.0050218
2023-10-23 14:24:53.118000128,-0.0029565999999999,0.0161680799999999,-0.0064584999999999
2023-10-23 14:24:53.131000064,-0.0030004999999999,0.01558315,-0.0064671
2023-10-23 14:24:53.145999872,-0.0054885,0.02859077,-0.0056366999999999
2023-10-23 14:24:53.160000000,-0.0144524,0.038927754,-0.0059106
2023-10-23 14:24:53.174000128,-0.0213025999999999,0.035879546,-0.0054861999999999
2023-10-23 14:24:53.188000000,-0.0143053,0.00470625,-0.0003708999999999
2023-10-23 14:24:53.201999872,0.0016564,-0.0123986,0.0062848999999999
2023-10-23 14:24:53.216000000,0.0133684,-0.01784278,0.012583
2023-10-23 14:24:53.231000064,0.0161951999999999,-0.00570534,0.0156572999999999
2023-10-23 14:24:53.244000000,0.0122805,0.00442067,0.0198225
2023-10-23 14:24:53.257999872,0.0062364999999999,0.00953771,0.0201397999999999
2023-10-23 14:24:53.272000000,0.0040453,0.01120613,0.0193354
2023-10-23 14:24:53.286000128,0.0040284999999999,0.0115486799999999,0.0154080999999999
2023-10-23 14:24:53.299000064,0.0036224999999999,0.0136208499999999,0.0148166
2023-10-23 14:24:53.312000000,0.0010991,0.0134482199999999,0.0131670999999999
2023-10-23 14:24:53.325999872,-0.0015036,0.01105537,0.0117415
2023-10-23 14:24:53.341000192,-0.0033535999999999,0.0069944499999999,0.0080916999999999
2023-10-23 14:24:53.356000000,-0.0064429,0.00380065,0.0038838999999999
2023-10-23 14:24:53.368000000,-0.0095629999999999,-0.0002107199999999,0.0010715
2023-10-23 14:24:53.381999872,-0.0106189999999999,-0.00522349,-0.0004785999999999
2023-10-23 14:24:53.397000192,-0.0100362,-0.0126913699999999,-0.0004840999999999
2023-10-23 14:24:53.410000128,-0.0081579999999999,-0.01801947,-0.0005465
2023-10-23 14:24:53.424000000,-0.0066559999999999,-0.0225534999999999,-0.0008022999999999
2023-10-23 14:24:53.436999936,-0.0058905999999999,-0.025310462,0.0001818999999999
2023-10-23 14:24:53.451000064,-0.0033577,-0.025559898,0.0007752
2023-10-23 14:24:53.464999936,-0.001181,-0.02279386,0.0019966
2023-10-23 14:24:53.477999872,-0.0013489999999998,-0.0170037399999999,0.0037396999999999
2023-10-23 14:24:53.493999872,-0.0025460000000001,-0.01114097,0.0067362
2023-10-23 14:24:53.507000064,-0.0036369999999998,-0.0076708699999999,0.0090797999999999
2023-10-23 14:24:53.520999936,-0.0018150000000001,-0.0079113499999999,0.0097078
2023-10-23 14:24:53.535000064,0.002475,-0.00937909,0.0109954999999999
2023-10-23 14:24:53.548000000,0.004358,-0.0074965699999999,0.0110392
2023-10-23 14:24:53.562000128,0.0053879999999999,-0.0049384999999999,0.0121514999999999
2023-10-23 14:24:53.576000000,0.0059319000000001,0.0001463999999999,0.0122079999999999
2023-10-23 14:24:53.589999872,0.0062664999999999,0.0041584,0.0111162
2023-10-23 14:24:53.604999936,0.0069799999999999,0.0071912199999999,0.0102099999999999
2023-10-23 14:24:53.618000128,0.0040740999999999,0.01626576,0.0062524999999999
2023-10-23 14:24:53.632000000,-0.0045815999999999,0.0380771799999999,0.0036741999999999
2023-10-23 14:24:53.645999872,-0.0174007999999999,0.05000532,0.0030521
2023-10-23 14:24:53.660000000,-0.0147670999999999,0.0275725,0.0031522999999999
2023-10-23 14:24:53.674000128,0.0003699999999999,0.00553528,0.002619
2023-10-23 14:24:53.688000000,0.0201546999999999,-0.01508688,0.0026010999999999
2023-10-23 14:24:53.701999872,0.0277041,-0.031990985,0.0005156
2023-10-23 14:24:53.716999936,0.032694,-0.022597045,-0.0028335999999999
2023-10-23 14:24:53.730000128,0.0266145999999999,-0.00518712,-0.007483
2023-10-23 14:24:53.743000064,0.0110753,0.0073259099999999,-0.0088779999999999
2023-10-23 14:24:53.756999936,9.82999999999956e-05,0.015472786,-0.0089270999999999
2023-10-23 14:24:53.770999808,-0.0031890999999999,0.015251569,-0.0084019999999999
2023-10-23 14:24:53.785000192,0.0014625999999999,0.010390125,-0.006874
2023-10-23 14:24:53.800000000,0.0042269999999999,0.00250187,-0.0040811999999999
2023-10-23 14:24:53.812999936,0.0074258,-0.0038753499999999,-0.0015031
2023-10-23 14:24:53.826999808,0.0088353999999999,-0.00710539,0.0015770999999999
2023-10-23 14:24:53.841000192,0.0070208999999999,-0.0098220888,0.0036722999999999
2023-10-23 14:24:53.855000064,0.001939,-0.0101560812,0.0043658
2023-10-23 14:24:53.868999936,-0.0038283,-0.00924758,0.0040999
2023-10-23 14:24:53.884000000,-0.0072548,-0.00836901,0.0036608999999999
2023-10-23 14:24:53.897000192,-0.0079411,-0.00903219,0.0028637999999999
2023-10-23 14:24:53.910000128,-0.0075038999999998,-0.00971516,0.0016805
2023-10-23 14:24:53.924000000,-0.0068788,-0.0093194399999999,8.130000000000637e-05
2023-10-23 14:24:53.937999872,-0.0057964999999999,-0.00938823,-0.0009125
2023-10-23 14:24:53.952000000,-0.0039711,-0.00947083,-0.0021854
2023-10-23 14:24:53.967000064,-0.0024068999999999,-0.0103699599999999,-0.0031112
2023-10-23 14:24:53.980000000,-0.0003227999999999,-0.0106123999999999,-0.0037148999999999
2023-10-23 14:24:53.993999872,-3.5000000000451337e-06,-0.01605988,-0.004584
2023-10-23 14:24:54.008000000,0.0035809999999999,-0.0153916,-0.0048351999999999
2023-10-23 14:24:54.022000128,0.0070489,-0.0120281999999999,-0.0047564
2023-10-23 14:24:54.036000000,0.0088133,-0.0060176,-0.0049538999999999
2023-10-23 14:24:54.049999872,0.0055551999999999,0.0011848,-0.0038568999999999
2023-10-23 14:24:54.063000064,0.0020527,0.0071183999999999,-0.0029118
2023-10-23 14:24:54.076999936,-0.0014937,0.0123945,-0.0013357999999999
2023-10-23 14:24:54.092000000,-0.0031191999999999,0.0177454999999999,0.0010872
2023-10-23 14:24:54.105999872,-0.0044757999999999,0.03080402,0.0031024
2023-10-23 14:24:54.119000064,-0.0068569,0.04979425,0.0045744
2023-10-23 14:24:54.132999936,-0.0056146999999999,0.04143351,0.0110625999999999
2023-10-23 14:24:54.145999872,-0.0023395,0.0184555699999999,0.0150053
2023-10-23 14:24:54.160999936,0.0079491999999999,0.01578603,0.0163714
2023-10-23 14:24:54.175000064,0.0144897999999999,0.00346384,0.0208461
2023-10-23 14:24:54.188000000,0.0239829,-0.00017725,0.0227764
2023-10-23 14:24:54.201999872,0.0283488,-0.0014327999999999,0.0239337999999999
2023-10-23 14:24:54.216999936,0.0292109999999999,0.0044950799999999,0.02677168
2023-10-23 14:24:54.231000064,0.0224533,0.0045473,0.02904735
2023-10-23 14:24:54.244000000,0.0169813999999999,0.0050707999999999,0.02980236
2023-10-23 14:24:54.257999872,0.0154912,0.00470296,0.027008358
2023-10-23 14:24:54.272000000,0.0192685,0.00111039,0.022954012
2023-10-23 14:24:54.286000128,0.0232101,-0.00316131,0.01556354
2023-10-23 14:24:54.300000000,0.0275509999999999,-0.00752154,0.01036095
2023-10-23 14:24:54.313999872,0.0268598999999999,-0.0086207599999999,0.0058216499999999
2023-10-23 14:24:54.326999808,0.0282172,-0.00950554,0.00512011
2023-10-23 14:24:54.342000128,0.0241097,-0.00699778,0.00607226
2023-10-23 14:24:54.356000000,0.0215400999999999,-0.0051318699999999,0.0096594199999999
2023-10-23 14:24:54.369999872,0.0174638,-0.00342694,0.01105797
2023-10-23 14:24:54.382999808,0.0154503999999999,-0.0025825699999999,0.0127144299999999
2023-10-23 14:24:54.397000192,0.0152666999999999,-0.0025501,0.01380171
2023-10-23 14:24:54.410000128,0.0162488,-0.0039044999999999,0.0134234999999999
2023-10-23 14:24:54.424999936,0.0184710999999999,-0.00581315,0.0109473999999999
2023-10-23 14:24:54.438999808,0.0222638,-0.009831893,0.0088071
2023-10-23 14:24:54.453000192,0.0230894,-0.01030738,0.0058584999999999
2023-10-23 14:24:54.467000064,0.0228810999999999,-0.0087251569999999,0.0045101
2023-10-23 14:24:54.480000000,0.0208707,-0.00608916,0.0042298
2023-10-23 14:24:54.493999872,0.0199960999999999,-0.00428367,0.0051037999999999
2023-10-23 14:24:54.508000000,0.017467,-0.0025422499999999,0.0048873999999999
2023-10-23 14:24:54.523000064,0.0181039,0.0002481999999999,0.0050655
2023-10-23 14:24:54.536000000,0.0171411,0.00505672,0.0058747
2023-10-23 14:24:54.549999872,0.0173670999999999,0.01171694,0.0087941
2023-10-23 14:24:54.563000064,0.0183899,0.017046547,0.0129014
2023-10-23 14:24:54.576999936,0.0185526999999999,0.019671343,0.0132258999999999
2023-10-23 14:24:54.592000000,0.0180999,0.01566469,0.0064363
2023-10-23 14:24:54.605999872,0.015741,0.0125713599999999,-0.0045955
2023-10-23 14:24:54.620999936,0.0164647,0.00168895,-0.0159191999999999
2023-10-23 14:24:54.632999936,0.0175002999999999,-0.01571494,-0.0267207999999999
2023-10-23 14:24:54.647000064,0.0160427,-0.0214737,-0.0374157
2023-10-23 14:24:54.660999936,0.0120997999999999,-0.02081841,-0.0438968999999999
2023-10-23 14:24:54.675000064,0.0074332,-0.01328887,-0.04082053
2023-10-23 14:24:54.690000128,0.0033436,0.00383344,-0.0298716399999999
2023-10-23 14:24:54.704000000,0.0019281999999999,0.021054178,-0.013555785
2023-10-23 14:24:54.716999936,0.0030016999999999,0.0263788919999999,-0.000861484
2023-10-23 14:24:54.730000128,0.0066607999999999,0.0249141,-0.000517499
2023-10-23 14:24:54.744000000,0.0087405,0.01666872,-0.0080011526
2023-10-23 14:24:54.757999872,0.0095789,0.0105532899999999,-0.0142324094
2023-10-23 14:24:54.772000000,0.0116557999999999,0.00912585,-0.0181444
2023-10-23 14:24:54.787000064,0.0141935,0.0091674699999999,-0.01821776
2023-10-23 14:24:54.800000000,0.0144602999999999,0.0088016,-0.0148423899999999
2023-10-23 14:24:54.813999872,0.0149489,0.0083444,-0.01242944
2023-10-23 14:24:54.826999808,0.01439245,0.0071399999999999,-0.0102159299999999
2023-10-23 14:24:54.842000128,0.01249572,0.0046668,-0.01039761
2023-10-23 14:24:54.856000000,0.0088665499999999,0.0008759999999999,-0.01147507
2023-10-23 14:24:54.869999872,0.0058165999999999,-0.0034853999999999,-0.0139475
2023-10-23 14:24:54.882999808,0.0030937,-0.0082764,-0.0164742
2023-10-23 14:24:54.897000192,0.0002755299999999,-0.0137431999999999,-0.0194189999999999
2023-10-23 14:24:54.910000128,-0.00270832,-0.01871931,-0.0213404
2023-10-23 14:24:54.924000000,-0.00699993,-0.02057298,-0.0220294999999999
2023-10-23 14:24:54.937999872,-0.0104329299999999,-0.0203752799999999,-0.0227705
2023-10-23 14:24:54.953999872,-0.01299136,-0.01571723,-0.0200933
2023-10-23 14:24:54.966000128,-0.0152165299999999,-0.01153092,-0.0182953999999999
2023-10-23 14:24:54.980000000,-0.01474158,-0.0067599799999999,-0.0136364999999999
2023-10-23 14:24:54.993999872,-0.0153057,-0.004473921,-0.0121893
2023-10-23 14:24:55.008000000,-0.0136432999999999,-7.626799999999913e-05,-0.008778
2023-10-23 14:24:55.022000128,-0.0133044,0.0051247589999999,-0.0054391999999999
2023-10-23 14:24:55.036000000,-0.0110675999999999,0.00666057,-0.002296
2023-10-23 14:24:55.049999872,-0.0104346,0.0075630499999999,-3.599999999998049e-05
2023-10-23 14:24:55.063000064,-0.0090872999999999,0.0076360299999999,0.0019625999999999
2023-10-23 14:24:55.076000000,-0.0085495999999999,0.00876611,0.0054721999999999
2023-10-23 14:24:55.091000064,-0.0054933,0.00935868,0.0092176
2023-10-23 14:24:55.104999936,-0.0020101999999999,0.0078567599999999,0.0111107999999999
2023-10-23 14:24:55.120000000,-0.0001442,-0.0008554799999999,0.0102373
2023-10-23 14:24:55.132999936,-4.100000000001325e-05,-0.00739807,0.0081886999999999
2023-10-23 14:24:55.145999872,0.0013334,-0.0094136499999999,0.0072383999999999
2023-10-23 14:24:55.160999936,0.0055940999999999,-0.008888,0.0063072
2023-10-23 14:24:55.175000064,0.0090876,-0.00791051,0.0035490999999999
2023-10-23 14:24:55.188999936,0.0103933999999999,-0.00786993,0.0003376
2023-10-23 14:24:55.201999872,0.0092191,-0.0068262599999999,-0.0006956
2023-10-23 14:24:55.216000000,0.0084638999999999,-0.003688921,-0.0001556999999999
2023-10-23 14:24:55.230000128,0.0091621,-0.0011690829999999,-0.000437
2023-10-23 14:24:55.243000064,0.0080648,0.0010934559999999,-0.0028285999999999
2023-10-23 14:24:55.257999872,0.0072717999999999,0.001951108,-0.0068952
2023-10-23 14:24:55.272000000,0.0055674,0.00216228,-0.0103022999999999
2023-10-23 14:24:55.286000128,0.0048127999999999,0.0022961099999999,-0.0124504999999999
2023-10-23 14:24:55.300000000,0.0065103999999999,0.00385235,-0.0133668
2023-10-23 14:24:55.313999872,0.0075341,0.0066361999999999,-0.0099489
2023-10-23 14:24:55.328000000,0.0096278999999999,0.00904547,-0.0080430999999999
2023-10-23 14:24:55.342000128,0.0098841,0.0083313199999999,-0.0066264999999999
2023-10-23 14:24:55.356000000,0.00799057,0.00441943,-0.0068939
2023-10-23 14:24:55.369999872,0.0074353999999999,0.0007264699999999,-0.0076457
2023-10-23 14:24:55.384000000,0.0065327599999999,-0.0017525799999999,-0.0067272999999999
2023-10-23 14:24:55.397000192,0.00578908,-0.00346379,-0.0044565999999999
2023-10-23 14:24:55.411000064,0.0066272799999999,-0.0053499,-0.0025468
2023-10-23 14:24:55.424999936,0.00670579,-0.00657332,2.780000000002225e-05
2023-10-23 14:24:55.438999808,0.0071266399999999,-0.0071501199999999,0.000533
2023-10-23 14:24:55.453000192,0.00786246,-0.00589454,-0.0006347
2023-10-23 14:24:55.467000064,0.00755431,-0.00570191,-0.0025254999999999
2023-10-23 14:24:55.480000000,0.0069616,-0.0049390289999999,-0.0033028
2023-10-23 14:24:55.493999872,0.00630031,-0.003405133,-0.0030426999999999
2023-10-23 14:24:55.508000000,0.004670553,-0.003823643,-0.0019373
2023-10-23 14:24:55.523000064,0.002417587,-0.005516665,-0.0020048999999999
2023-10-23 14:24:55.536000000,0.0001614093999999,-0.0066536799999999,-0.0016994
2023-10-23 14:24:55.549999872,-0.0008478384,-0.0046450599999999,-0.0003772
2023-10-23 14:24:55.564000000,-0.0003626799999999,-0.00071036,0.0018809
2023-10-23 14:24:55.578000128,0.0011930541999999,0.0021997299999999,0.0031270999999999
2023-10-23 14:24:55.592000000,0.0016208738,0.005091885,0.0034984
2023-10-23 14:24:55.605999872,0.001225673,0.004842161,0.0039686999999999
2023-10-23 14:24:55.620000000,0.002427533,0.013266961,0.0064775
2023-10-23 14:24:55.632999936,0.007432525,0.030522543,0.0099332999999999
2023-10-23 14:24:55.648000000,0.01046526,0.0101645499999999,0.0107636999999999
2023-10-23 14:24:55.660999936,-0.00128922,-0.0049061899999999,0.0079278
2023-10-23 14:24:55.675000064,-0.011050715,-0.01716465,0.0065201999999999
2023-10-23 14:24:55.688999936,-0.0120186429999999,-0.020279461,0.00844
2023-10-23 14:24:55.703000064,-0.007881903,-0.010692598,0.0118945999999999
2023-10-23 14:24:55.716000000,0.001148418,0.0003918999999999,0.0150012999999999
2023-10-23 14:24:55.730000128,0.004849967,0.004961524,0.0179086
2023-10-23 14:24:55.744000000,0.0038636919599999,0.001535765,0.0187291999999999
2023-10-23 14:24:55.757999872,-0.00028993186,-0.000950231,0.0185692
2023-10-23 14:24:55.772000000,-0.0027493421,-0.0016064991,0.0165530999999999
2023-10-23 14:24:55.788000000,-0.004463852,8.51825e-05,0.0161435
2023-10-23 14:24:55.800000000,-0.0049349899999999,0.0006120706,0.0147458
2023-10-23 14:24:55.812999936,-0.0044131999999999,0.001154926,0.0130419999999999
2023-10-23 14:24:55.828000000,-0.00303472,0.001577815,0.0117073
2023-10-23 14:24:55.841000192,-0.0015306,0.0025196119999999,0.0114882
2023-10-23 14:24:55.855000064,-0.0005741,0.002743475,0.0111896999999999
2023-10-23 14:24:55.868999936,-0.0007607599999999,0.003112099,0.0111256999999999
2023-10-23 14:24:55.882999808,-0.0016349499999999,0.00286432,0.01028462
2023-10-23 14:24:55.897000192,-0.00208929,0.00168138,0.0101751299999999
2023-10-23 14:24:55.910000128,-0.0020063599999999,-0.00014858,0.00959454
2023-10-23 14:24:55.924000000,-0.00174722,-0.0016110499999999,0.0097123899999999
2023-10-23 14:24:55.938999808,-0.0012618,-0.0036767499999999,0.00899476
2023-10-23 14:24:55.954999808,-0.0007694099999999,-0.006058687,0.00898972
2023-10-23 14:24:55.967000064,-0.0004528899999999,-0.007896077,0.00893992
2023-10-23 14:24:55.980000000,-0.0002995699999999,-0.009601226,0.0081313299999999
2023-10-23 14:24:55.993999872,-9.888000000000258e-05,-0.01262563,0.00864918
2023-10-23 14:24:56.008000000,-0.0006092899999999,-0.0134969299999999,0.00824594
2023-10-23 14:24:56.023000064,-0.00123331,-0.01427903,0.008266673
2023-10-23 14:24:56.036999936,-0.00114687,-0.0144877599999999,0.0073780309999999
2023-10-23 14:24:56.049999872,-0.0021783499999999,-0.01466562,0.006520615
2023-10-23 14:24:56.064000000,-0.00357525,-0.0131188299999999,0.005761351
2023-10-23 14:24:56.076999936,-0.00449878,-0.0128026299999999,0.0059081399999999
2023-10-23 14:24:56.092000000,-0.00498512,-0.0119647999999999,0.00639667
2023-10-23 14:24:56.105999872,-0.0041225199999999,-0.0098204,0.00718433
2023-10-23 14:24:56.119000064,-0.0021096099999999,-0.00509,0.0078113199999999
2023-10-23 14:24:56.132999936,0.0001114299999999,0.0008048,0.00931144
2023-10-23 14:24:56.145999872,0.0014197,0.0080662999999999,0.0102897199999999
2023-10-23 14:24:56.160999936,0.0026730599999999,0.0136176999999999,0.01037787
2023-10-23 14:24:56.175000064,0.00249345,0.0146994999999999,0.0084110099999999
2023-10-23 14:24:56.190000128,0.0016360399999999,0.01434147,0.0056966499999999
2023-10-23 14:24:56.203000064,0.00089841,0.01209056,0.00333123
2023-10-23 14:24:56.216999936,9.3349999999999e-05,0.0126090199999999,0.00257635
2023-10-23 14:24:56.231000064,-0.0002255899999999,0.01210454,0.0024908099999999
2023-10-23 14:24:56.244000000,-0.0002579899999999,0.01071511,0.0022886999999999
2023-10-23 14:24:56.257999872,0.0004789099999999,0.0088949099999999,0.00207788
2023-10-23 14:24:56.272000000,0.00019061,0.0045678,0.0008460299999999
2023-10-23 14:24:56.286000128,-0.00089109,0.0020312999999999,0.00041048
2023-10-23 14:24:56.300000000,-0.0017357199999999,-0.0001209699999999,1.916999999999891e-05
2023-10-23 14:24:56.312999936,-0.00138038,-0.00069946,1.5470000000003536e-05
2023-10-23 14:24:56.326999808,-0.00037936,-0.0008681699999999,0.00063246
2023-10-23 14:24:56.341000192,0.00060757,-0.00143638,0.0008681399999999
2023-10-23 14:24:56.357000192,3.2459999999998046e-05,-0.00198401,0.00106152
2023-10-23 14:24:56.369999872,-0.00030286,-0.0027624699999999,-3.086000000000755e-05
2023-10-23 14:24:56.382999808,-0.0009404999999999,-0.0029163299999999,-0.0009015299999999
2023-10-23 14:24:56.397000192,-0.0009111799999999,-0.0026581799999999,-0.0011649199999999
2023-10-23 14:24:56.411000064,-0.00042034,-0.00139381,-0.0008356199999999
2023-10-23 14:24:56.424999936,5.321000000000492e-05,-7.191999999999615e-05,-0.00104063
2023-10-23 14:24:56.440000000,0.0002647399999999,0.0010307499999999,-0.00094853
2023-10-23 14:24:56.453999872,0.0004174699999999,0.00122494,-0.0011573399999999
2023-10-23 14:24:56.466000128,0.00103411,0.00154719,-0.00089449
2023-10-23 14:24:56.480000000,0.0012044299999999,0.0011113099999999,-0.0007692599999999
2023-10-23 14:24:56.493999872,0.00103748,0.00071491,-0.0005727499999999
2023-10-23 14:24:56.508000000,0.0009830299999999,-0.0003675799999999,-0.00111241
2023-10-23 14:24:56.523000064,0.0001842199999999,-0.00145567,-0.0020892699999999
2023-10-23 14:24:56.536999936,0.00063338,-0.0023987699999999,-0.00308935
2023-10-23 14:24:56.549999872,0.00013378,-0.00280325,-0.0032090699999999
2023-10-23 14:24:56.564000000,0.0002493299999999,-0.00285955,-0.0030403
2023-10-23 14:24:56.576999936,0.00085923,-0.0023993599999999,-0.0023958399999999
2023-10-23 14:24:56.591000064,0.00193978,-0.0019542199999999,-0.00219859
2023-10-23 14:24:56.604999936,0.0022267299999999,-0.00169705,-0.00205813
2023-10-23 14:24:56.620000000,0.0019426,-0.0013310699999999,-0.0020352599999999
2023-10-23 14:24:56.632999936,0.0013285599999999,-0.00107452,-0.0031058999999999
2023-10-23 14:24:56.647000064,0.0011273699999999,-0.00033719,-0.0031831699999999
2023-10-23 14:24:56.660999936,0.00157687,0.00080984,-0.00338303
2023-10-23 14:24:56.675000064,0.00221087,0.0025755799999999,-0.00335443
2023-10-23 14:24:56.690000128,0.0025523199999999,0.00351059,-0.0031147599999999
2023-10-23 14:24:56.703000064,0.00286255,0.00369014,-0.00360067
2023-10-23 14:24:56.716999936,0.00209244,0.00441416,-0.00321823
2023-10-23 14:24:56.730000128,0.0016938599999999,0.0058742799999999,-0.00306548
2023-10-23 14:24:56.744000000,0.00148173,0.00632513,-0.0024792599999999
2023-10-23 14:24:56.757999872,0.00097049,0.00692104,-0.00269463
2023-10-23 14:24:56.772000000,0.0010669099999999,0.0068820919999999,-0.0026463299999999
2023-10-23 14:24:56.786000128,0.00108028,0.0059258369,-0.0023868699999999
2023-10-23 14:24:56.800000000,0.0013321699999999,0.0054550671,-0.00269443
2023-10-23 14:24:56.812999936,0.00088768,0.003691047,-0.0030311699999999
2023-10-23 14:24:56.828999936,0.00065625,0.002263157,-0.00339379
2023-10-23 14:24:56.842000128,0.0001291599999999,0.0001405099999999,-0.00346845
2023-10-23 14:24:56.856000000,-0.0002296199999999,-0.0007534199999999,-0.0035344099999999
2023-10-23 14:24:56.868999936,0.0001301099999999,-0.001049081,-0.00310953
2023-10-23 14:24:56.882999808,0.00098248,-0.0001211279999999,-0.0019071599999999
2023-10-23 14:24:56.897000192,0.0017034299999999,0.0011680689999999,-0.00045582
2023-10-23 14:24:56.911000064,0.00160384,0.00066268,0.0001045799999999
2023-10-23 14:24:56.926000128,0.0015295399999999,-0.0001770599999999,-1.8879999999998898e-05
2023-10-23 14:24:56.938999808,0.00104384,-0.0019612239999999,-0.00052558
2023-10-23 14:24:56.953999872,0.0002241399999999,-0.002874062,-0.0006781199999999
2023-10-23 14:24:56.967000064,0.0002095399999999,-0.003938851,-0.00094767
2023-10-23 14:24:56.980000000,0.00014601,-0.003969574,-0.0008845279999999
2023-10-23 14:24:56.994999808,0.00014266,-0.004665436,-0.000968593
2023-10-23 14:24:57.009999872,0.00026227,-0.004015303,-0.000583177
2023-10-23 14:24:57.023000064,-0.0002577,-0.0034584,-0.0002833569999999
2023-10-23 14:24:57.036000000,0.00021993,-0.0027952299999999,-0.0001978929999999
2023-10-23 14:24:57.049999872,0.0002874399999999,-0.00203839,0.000405344
2023-10-23 14:24:57.063000064,0.001412613,-0.0008248,0.0007938529999999
2023-10-23 14:24:57.076999936,0.001103275,-0.00070804,0.000765872
2023-10-23 14:24:57.092000000,0.000360265,-0.00085435,0.000864349
2023-10-23 14:24:57.105999872,-0.000314566,-0.0003570599999999,0.0006249299999999
2023-10-23 14:24:57.120999936,1.9879000000000424e-05,0.0006564499999999,0.00054694
2023-10-23 14:24:57.132999936,0.0006552619999999,0.00231694,0.0007628199999999
2023-10-23 14:24:57.147000064,0.001273766,0.0032997,0.0007197
2023-10-23 14:24:57.160999936,0.001619972,0.0039954599999999,0.00087739
2023-10-23 14:24:57.175000064,0.0013361749999999,0.004310692,0.0009663599999999
2023-10-23 14:24:57.188999936,0.0010705539999999,0.002666845,0.00041882
2023-10-23 14:24:57.201999872,0.0009167566,0.002046344,0.0002372699999999
2023-10-23 14:24:57.216000000,0.0005427216999999,0.00066902,-0.00012966
2023-10-23 14:24:57.231000064,-0.0004754718999999,-0.000329664,-3.51199999999996e-05
2023-10-23 14:24:57.244000000,-0.0012397944,-0.0011464779999999,-0.00051689
2023-10-23 14:24:57.259000064,-0.0015457169999999,-0.001691746,-0.0008013799999999
2023-10-23 14:24:57.272000000,-0.0008274049999999,-0.0009272239999999,-0.00039098
2023-10-23 14:24:57.286000128,-0.000135534,0.0002410099999999,0.00039748
2023-10-23 14:24:57.300000000,0.000225646,0.000520126,0.0006633699999999
2023-10-23 14:24:57.312999936,0.000310381,0.000278899,0.00063782
2023-10-23 14:24:57.326999808,0.0004923249999999,-0.0003595439999999,0.0002077699999999
2023-10-23 14:24:57.342999808,-0.000151472,-0.001120381,-0.0002999999999999
2023-10-23 14:24:57.356000000,-0.0006875529999999,-0.001053933,-0.0007916399999999
2023-10-23 14:24:57.369999872,-0.001160331,-0.0006011709999999,-0.0008833399999999
2023-10-23 14:24:57.384000000,-0.0002910879999999,-5.75000000000922e-07,-0.00129774
2023-10-23 14:24:57.398000128,0.0003326639999999,0.001305146,-0.00081658
2023-10-23 14:24:57.411000064,0.0003956029999999,0.001847422,-0.0009250399999999
2023-10-23 14:24:57.427000064,0.0003273479999999,0.002946669,-0.001131201
2023-10-23 14:24:57.438999808,0.000850604,0.005230366,-0.001265949
2023-10-23 14:24:57.453999872,0.002113112,0.009068737,-0.0008559209999999
2023-10-23 14:24:57.467000064,0.0033062789999999,0.01256913,-0.001207655
2023-10-23 14:24:57.480000000,0.0028843739999999,0.01284726,-0.0014135219999999
2023-10-23 14:24:57.493999872,0.001939167,0.01236408,-0.002527931
2023-10-23 14:24:57.508999936,0.001371659,0.01149975,-0.0023431873
2023-10-23 14:24:57.523000064,0.0024476309999999,0.0117026,-0.0015192817
2023-10-23 14:24:57.536000000,0.00194646,0.0112818199999999,-0.001393671
2023-10-23 14:24:57.549999872,0.00126215,0.01005055,-0.002352735
2023-10-23 14:24:57.564000000,-0.00027654,0.0093485099999999,-0.0028432989999999
2023-10-23 14:24:57.576999936,-0.00120668,0.0068645,-0.002654307
2023-10-23 14:24:57.592999936,-0.0027016239999999,0.0056514999999999,-0.0034781099999999
2023-10-23 14:24:57.604999936,-0.002699957,0.0037253,-0.00438383
2023-10-23 14:24:57.620000000,-0.002201761,0.0030234999999999,-0.0048165699999999
2023-10-23 14:24:57.632999936,-0.0016013499999999,0.0030678,-0.00534892
2023-10-23 14:24:57.647000064,-0.001500744,0.002086,-0.00454887
2023-10-23 14:24:57.660999936,-0.0021232334,0.0009859999999999,-0.0053164399999999
2023-10-23 14:24:57.675000064,-0.0021206746,-0.0013849999999999,-0.0061406199999999
2023-10-23 14:24:57.688999936,-0.0026077719999999,-0.0030351999999999,-0.00699956
2023-10-23 14:24:57.701999872,-0.002050399,-0.0036107,-0.0068110899999999
2023-10-23 14:24:57.716000000,-0.0016580279999999,-0.0040127,-0.00610824
2023-10-23 14:24:57.730000128,-0.000705761,-0.0038165,-0.00518794
2023-10-23 14:24:57.744000000,-0.0009968259999999,-0.0045603999999999,-0.00575536
2023-10-23 14:24:57.760000000,-0.00155678,-0.0057123,-0.0061337499999999
2023-10-23 14:24:57.772000000,-0.00176545,-0.00668404,-0.0063399199999999
2023-10-23 14:24:57.786000128,-0.00182405,-0.00558087,-0.0047402799999999
2023-10-23 14:24:57.800000000,-0.0020679899999999,-0.0040860799999999,-0.0032967
2023-10-23 14:24:57.813999872,-0.00174032,-0.00299575,-0.0015963199999999
2023-10-23 14:24:57.828000000,-0.0010433899999999,-0.00204569,-0.0008919599999999
2023-10-23 14:24:57.842000128,1.7889999999999573e-05,-0.0019788599999999,-0.00025253
2023-10-23 14:24:57.856000000,0.00056668,-0.0030639999999999,0.00027723
2023-10-23 14:24:57.868999936,0.0004935199999999,-0.00421573,0.00112418
2023-10-23 14:24:57.882999808,0.00019393,-0.00533274,0.00152602
2023-10-23 14:24:57.897000192,-0.0003097599999999,-0.0047432799999999,0.0025043499999999
2023-10-23 14:24:57.911000064,0.0001884799999999,-0.00328258,0.00302768
2023-10-23 14:24:57.926000128,0.00093834,-0.00117503,0.0036770599999999
2023-10-23 14:24:57.938999808,0.0011610099999999,-0.0007749499999999,0.00452865
2023-10-23 14:24:57.954999808,0.00111463,-0.00156438,0.0045650299999999
2023-10-23 14:24:57.967000064,0.0008142299999999,-0.0029365599999999,0.0046090699999999
2023-10-23 14:24:57.980000000,0.00049766,-0.00347436,0.00386013
2023-10-23 14:24:57.993999872,0.0001504999999999,-0.0041032999999999,0.00459321
2023-10-23 14:24:58.008999936,0.00035853,-0.00387379,0.0047018799999999
2023-10-23 14:24:58.022000128,0.0003363199999999,-0.0044345,0.00500417
2023-10-23 14:24:58.036000000,2.3840000000000663e-05,-0.0048087199999999,0.00546917
2023-10-23 14:24:58.049999872,0.0001205299999999,-0.00489059,0.0049223899999999
2023-10-23 14:24:58.064000000,0.00037475,-0.00466164,0.00481439
2023-10-23 14:24:58.076999936,0.00096509,-0.00312743,0.0047473399999999
2023-10-23 14:24:58.091000064,0.00141192,-0.0015318399999999,0.00484523
2023-10-23 14:24:58.104000000,0.0018473799999999,-0.0001582899999999,0.00458199
2023-10-23 14:24:58.117000192,0.001509103,-7.529000000000216e-05,0.0040567499999999
2023-10-23 14:24:58.132000000,0.0007251589999999,-0.00077164,0.00374349
2023-10-23 14:24:58.145999872,-0.000131791,-0.0017600199999999,0.0028578399999999
2023-10-23 14:24:58.160000000,-0.0003151059999999,-0.00113315,0.00271226
2023-10-23 14:24:58.173000192,-0.0002785519999999,-0.0007547999999999,0.0031979489999999
2023-10-23 14:24:58.188000000,-0.000223272,-0.00067298,0.002619623
2023-10-23 14:24:58.200999936,-0.000263986,-0.0009085699999999,0.00261348
2023-10-23 14:24:58.214999808,-0.0003196529999999,-0.00077576,0.002317757
2023-10-23 14:24:58.229000192,0.000353561,-0.00033884,0.0018343247999999
2023-10-23 14:24:58.242000128,0.0005723159999999,0.0006227899999999,0.0020849152
2023-10-23 14:24:58.256000000,0.0010598339999999,0.00109625,0.0018338939999999
2023-10-23 14:24:58.268999936,0.000760148,0.0008387099999999,0.001609971
2023-10-23 14:24:58.283000064,0.0004571389999999,9.829000000000088e-05,0.001416655
2023-10-23 14:24:58.296999936,0.000314333,-0.0005266899999999,0.001053345
2023-10-23 14:24:58.313999872,9.54150000000006e-05,-0.00117323,0.0011139339999999
2023-10-23 14:24:58.326999808,0.0002629089999999,-0.00126826,0.000648732
2023-10-23 14:24:58.339000064,0.000272963,-0.0011064339999999,0.00064756
2023-10-23 14:24:58.352999936,0.000675079,-0.0009844509999999,0.00060492
2023-10-23 14:24:58.367000064,0.0009916759999999,-0.000290797,0.0005559799999999
2023-10-23 14:24:58.380999936,0.001281602,-0.0002583419999999,0.00030493
2023-10-23 14:24:58.396000000,0.0010961378,-7.114900000000039e-05,-4.233000000000015e-05
2023-10-23 14:24:58.408999936,0.0009738207,-0.0002111109999999,-0.0003323399999999
2023-10-23 14:24:58.423000064,0.0004113494999999,-0.000734798,4.707999999999969e-05
2023-10-23 14:24:58.436999936,0.000543226,-0.0003866849999999,-0.0001682
2023-10-23 14:24:58.451000064,0.000267718,-0.0009417729999999,-0.00023262
2023-10-23 14:24:58.464999936,0.0002665549999999,6.75160000000001e-05,2.300000000003688e-07
2023-10-23 14:24:58.477999872,0.000398955,0.0001444239999999,0.0002386899999999
2023-10-23 14:24:58.492000000,0.001265678,0.000549837,-6.385999999999892e-05
2023-10-23 14:24:58.507000064,0.001394392,0.0011092949999999,6.924999999999987e-05
2023-10-23 14:24:58.520999936,0.0012840989999999,0.000445769,-0.00030565
2023-10-23 14:24:58.533999872,0.000445489,-0.000258634,-0.0002938399999999
2023-10-23 14:24:58.548000000,4.808000000000243e-06,-0.001273662,0.0001326799999999
2023-10-23 14:24:58.562000128,-9.200300000000022e-05,-0.001528018,0.0003656299999999
2023-10-23 14:24:58.576999936,1.627299999999981e-05,-0.0010470579999999,0.00084337
2023-10-23 14:24:58.589999872,-0.0001180039999999,-0.0004117959999999,0.0005465399999999
2023-10-23 14:24:58.604000000,-0.000447529,0.000844207,0.0006981499999999
2023-10-23 14:24:58.618000128,-0.0007834169999999,0.0010782529999999,0.00035862
2023-10-23 14:24:58.631000064,-0.000370317,0.001225933,-7.757000000000076e-05
2023-10-23 14:24:58.644999936,-0.0005475669999999,0.0003648879999999,-0.0006260199999999
2023-10-23 14:24:58.660000000,-0.001314546,-0.0003724969999999,-0.000484
2023-10-23 14:24:58.674000128,-0.0013602829999999,-0.000997364,-0.00016057
2023-10-23 14:24:58.688000000,-0.0008805322999999,-0.001242323,5.630000000001259e-06
2023-10-23 14:24:58.700999936,-0.0003118612999999,-0.0015387549999999,-0.00054884
2023-10-23 14:24:58.714999808,-0.00017921228,-0.0017807081,-0.00065457
2023-10-23 14:24:58.729000192,-3.246637e-05,-0.0018321689,-0.0008751399999999
2023-10-23 14:24:58.743000064,0.00025130415,-0.0014303229999999,-0.000817004
2023-10-23 14:24:58.756999936,0.0002480438,-0.001300859,-0.0005981859999999
2023-10-23 14:24:58.770999808,0.0005384733,-0.0009683079999999,-0.000899439
2023-10-23 14:24:58.784000000,0.00034807,0.0001010189999999,-0.001041644
2023-10-23 14:24:58.798000128,0.0001570809999999,0.0003274409999999,-0.0013683339999999
2023-10-23 14:24:58.812000000,-0.0002353639999999,0.000907664,-0.0008311849999999
2023-10-23 14:24:58.826999808,0.000393301,0.0007854429999999,-0.000889001
2023-10-23 14:24:58.840000000,0.0001540499999999,0.000472207,-0.001036674
2023-10-23 14:24:58.854000128,-0.000585122,-0.0001086859999999,-0.001188701
2023-10-23 14:24:58.868000000,-0.0006681451,-0.000172344,-0.0017757089999999
2023-10-23 14:24:58.880999936,-0.0012520717,-0.000195402,-0.0010565893
2023-10-23 14:24:58.896000000,-0.0007435931999999,0.00046189,-0.0006841017
2023-10-23 14:24:58.910000128,-0.000366636,0.0010033309999999,-0.0002232239999999
2023-10-23 14:24:58.924000000,3.901499999999988e-05,0.0013376770899999,-0.000136789
2023-10-23 14:24:58.937999872,-2.397100000000002e-05,0.00119735991,0.000330454
2023-10-23 14:24:58.952000000,-2.482799999999996e-05,0.0004760349999999,0.0004693049999999
2023-10-23 14:24:58.966000128,-0.0001670419999999,-0.0001053739999999,0.000471251
2023-10-23 14:24:58.979000064,0.0001447809999999,0.000118995,3.597110000000002e-05
2023-10-23 14:24:58.992999936,-0.0002357179999999,0.000909838,0.0002204636
2023-10-23 14:24:59.007000064,0.0002126529999999,0.0011320979999999,-0.0001211176999999
2023-10-23 14:24:59.020999936,0.0002525279999999,0.0009451519999999,-0.000283475
2023-10-23 14:24:59.035000064,0.0003425299999999,0.000260554,-0.000307812
2023-10-23 14:24:59.048999936,0.0003518333,-0.000101975,-0.0002145749999999
2023-10-23 14:24:59.062000128,0.0003304961999999,-0.0004460649999999,-0.000129064
2023-10-23 14:24:59.078000128,0.0002114223999999,-0.0007539159999999,0.0002010519999999
2023-10-23 14:24:59.092000000,0.0001526284,-0.001290059,0.000109589
2023-10-23 14:24:59.102999808,8.820324000000001e-05,-0.0011139409999999,0.0004244342
2023-10-23 14:24:59.114000128,0.00026655866,-0.0008214986,0.0001931455
2023-10-23 14:24:59.128000000,0.0003374309,-0.0006539834,0.0003153732
2023-10-23 14:24:59.141999872,4.891789999999997e-05,-0.0004966379,0.000627525
2023-10-23 14:24:59.155000064,0.0001063745,-0.0006828821,0.0002146344
2023-10-23 14:24:59.168999936,-0.000508099,-0.000940461,0.0005520936999999
2023-10-23 14:24:59.181999872,-0.00023847127,-0.000761055,0.000403153
2023-10-23 14:24:59.196000000,-0.00044278493,-3.878699999999976e-05,0.000682831
2023-10-23 14:24:59.210000128,-0.0004249783,7.881499999999987e-05,0.0007288769999999
2023-10-23 14:24:59.224000000,-0.0004755259999999,0.000562969,0.00070687
2023-10-23 14:24:59.237999872,-0.001089037,0.0010375,0.0012307159999999
2023-10-23 14:24:59.255000064,-0.001027764,0.0022191002,0.0016108
2023-10-23 14:24:59.267000064,-0.001142846,0.0035473087999999,0.0021294199999999
2023-10-23 14:24:59.280999936,-0.0011321469999999,0.005506428,0.002685886
2023-10-23 14:24:59.295000064,-0.001287532,0.008155254,0.00337552
2023-10-23 14:24:59.308999936,-0.00210549,0.0081631,0.00268071
2023-10-23 14:24:59.323000064,-0.0035523789999999,0.0069942799999999,0.0020639299999999
2023-10-23 14:24:59.336999936,-0.00459523,0.0032248299999999,0.00104509
2023-10-23 14:24:59.351000064,-0.0042431,0.00061914,3.781999999999744e-05
2023-10-23 14:24:59.364999936,-0.0036150299999999,-0.0013251999999999,-0.0003990599999999
2023-10-23 14:24:59.378000128,-0.00215762,-0.0021259,-0.0008051499999999
2023-10-23 14:24:59.395000064,-0.00160888,-0.00243843,-0.00054466
2023-10-23 14:24:59.405999872,-0.00081395,-0.00232697,-0.00046523
2023-10-23 14:24:59.420000000,-0.0006553099999999,-0.0024742999999999,-4.8219999999998125e-05
2023-10-23 14:24:59.434000128,-1.1899999999998715e-05,-0.00268967,0.0001092899999999
2023-10-23 14:24:59.448000000,0.0002449599999999,-0.0024005099999999,0.00028913
2023-10-23 14:24:59.461999872,-7.004999999999859e-05,-0.00230244,0.00066938
2023-10-23 14:24:59.476000000,0.00026895,-0.0021022899999999,0.0005789599999999
2023-10-23 14:24:59.489000192,-0.00032442,-0.0015496899999999,0.0008271
2023-10-23 14:24:59.503000064,-0.0007163499999999,-0.00124785,0.0010782799999999
2023-10-23 14:24:59.516999936,-0.00074346,-0.0008504999999999,0.0013364699999999
2023-10-23 14:24:59.530999808,-0.0008550899999999,-0.00062492,0.00121949
2023-10-23 14:24:59.545000192,-0.00088569,0.00020406,0.0011137
2023-10-23 14:24:59.559000064,-0.00154365,0.00103598,0.0014630599999999
2023-10-23 14:24:59.572999936,-0.0021048099999999,0.0013097699999999,0.00170375
2023-10-23 14:24:59.586999808,-0.00222411,0.00063702,0.00118137
2023-10-23 14:24:59.601000192,-0.0018440399999999,0.0001691599999999,0.0009778299999999
2023-10-23 14:24:59.615000064,-0.0016138799999999,0.00066441,0.0008551
2023-10-23 14:24:59.628999936,-0.00093731,0.00099751,0.0005995399999999
2023-10-23 14:24:59.642999808,-0.0002507799999999,0.0009387099999999,9.41800000000062e-05
2023-10-23 14:24:59.657000192,5.549999999999999e-06,0.00028235,-0.0002085
2023-10-23 14:24:59.671000064,-0.0001105799999999,-0.000653,-0.00064292
2023-10-23 14:24:59.684999936,6.939999999999724e-05,-0.0008268799999999,-0.0011021299999999
