time,rotate_x,rotate_y,rotate_z,angularVelocity_x,angularVelocity_y,angularVelocity_z,velocity_x,velocity_y,velocity_z,acceleration_x,acceleration_y,acceleration_z,position_x,position_y,position_z
2023-10-23 14:22:50.782000128,0.2313203,0.5747093,-0.2144218,0.6540164,1.039027,0.2522135,-0.09474198,0.005583809,0.4272155,,,,0.08627217,1.419086,0.4990981
2023-10-23 14:22:55.308000000,0.2338719,0.5682996,-0.2112731,0.6487821,1.052809,0.2789944,-0.1054377,0.003951999,0.4449514,-0.0106957199999999,-0.00163181,0.0177358999999999,0.0841981,1.418776,0.505588
2023-10-23 14:22:55.362999808,-0.04037295,0.1944164,-0.03228677,0.05459768,0.1455809,-0.05337633,0.00584859,0.00477105,-0.004195378,0.11128629,0.0008190509999999,-0.449146778,-0.4015808,-0.4399276,1.338049
2023-10-23 14:22:55.372999936,-0.04076356,0.193532,-0.03231603,0.05667439,0.1423348,-0.04743853,0.006058738,0.00473438,-0.004537515,0.000210148,-3.666999999999993e-05,-0.000342137,-0.4014937,-0.4398634,1.337917
2023-10-23 14:22:55.384999936,-0.04113862,0.1924392,-0.03227875,0.05222283,0.1427866,-0.05061768,0.006572798,0.004512009,-0.005059643,0.00051406,-0.0002223709999999,-0.000522128,-0.4014042,-0.4398085,1.337763
2023-10-23 14:22:55.398000128,-0.04139295,0.1913938,-0.03208891,0.044597,0.1385019,-0.05109559,0.006697783,0.004410625,-0.005407609,0.0001249849999999,-0.000101384,-0.0003479659999999,-0.401336,-0.4397598,1.337618
2023-10-23 14:22:55.407000064,-0.04164464,0.1904234,-0.03211226,0.03976461,0.1377728,-0.05137746,0.007017234,0.004401987,-0.00580583,0.000319451,-8.638000000000048e-06,-0.0003982209999999,-0.401255,-0.4396964,1.33747
2023-10-23 14:22:55.423000064,-0.04196043,0.1894222,-0.03191381,0.03566834,0.1369384,-0.05389934,0.007469839,0.004461741,-0.006278982,0.000452605,5.97540000000004e-05,-0.000473152,-0.4011621,-0.4396256,1.337314
2023-10-23 14:22:55.435000064,-0.04227182,0.1884308,-0.03182646,0.03573483,0.1392693,-0.05608715,0.008124837,0.004828029,-0.006499207,0.0006549979999999,0.000366288,-0.000220225,-0.4010635,-0.4395176,1.337162
2023-10-23 14:22:55.448000000,-0.04244935,0.1874736,-0.03182867,0.03582639,0.1369013,-0.05388868,0.008504442,0.005407389,-0.006680135,0.0003796049999999,0.00057936,-0.000180928,-0.4009604,-0.4393885,1.337012
2023-10-23 14:22:55.461999872,-0.04283725,0.1864804,-0.03165804,0.03883804,0.1384154,-0.05743993,0.009020267,0.005742664,-0.006988947,0.000515825,0.0003352749999999,-0.0003088119999999,-0.400849,-0.4393071,1.336847
2023-10-23 14:22:55.474999808,-0.04317458,0.185404,-0.03154533,0.03424447,0.1354901,-0.06016963,0.00893973,0.006743923,-0.007009683,-8.053700000000032e-05,0.001001259,-2.0736000000000365e-05,-0.4007525,-0.4391959,1.336682
2023-10-23 14:22:55.490000128,-0.04349593,0.184337,-0.03139421,0.0388624,0.1421019,-0.06336653,0.009361383,0.007315764,-0.007173218,0.0004216529999999,0.000571841,-0.000163535,-0.4005947,-0.4391094,1.336499
2023-10-23 14:22:55.503000064,-0.0438892,0.1832562,-0.03118075,0.04139548,0.1424915,-0.06392135,0.009412017,0.007747127,-0.007410275,5.063400000000079e-05,0.000431363,-0.0002370569999999,-0.4004137,-0.4390357,1.336302
2023-10-23 14:22:55.516999936,-0.04429359,0.1823021,-0.03127146,0.04364486,0.1417373,-0.06309906,0.009431181,0.008246871,-0.007508065,1.9164000000000334e-05,0.0004997439999999,-9.779000000000038e-05,-0.4002486,-0.4389254,1.33612
2023-10-23 14:22:55.530999808,-0.04480705,0.1811748,-0.03112398,0.04813522,0.1450744,-0.06719991,0.009452613,0.008720995,-0.007546186,2.1432000000000048e-05,0.000474124,-3.812099999999947e-05,-0.4001425,-0.4387984,1.335943
2023-10-23 14:22:55.544000000,-0.0452015,0.1799305,-0.03111391,0.05303608,0.1489519,-0.06283978,0.009373037,0.009213719,-0.007410778,-7.95759999999996e-05,0.0004927239999999,0.000135408,-0.4000427,-0.4386561,1.335766
2023-10-23 14:22:55.558000128,-0.04563779,0.178828,-0.03091637,0.05584712,0.1494513,-0.06632246,0.008899027,0.009474128,-0.00704486,-0.00047401,0.0002604089999999,0.0003659179999999,-0.3999595,-0.4385104,1.335637
2023-10-23 14:22:55.572999936,-0.04611327,0.1776336,-0.03084465,0.05813387,0.1566103,-0.06742607,0.008595612,0.009951334,-0.006549587,-0.0003034149999999,0.0004772059999999,0.000495273,-0.3998793,-0.4383344,1.335526
2023-10-23 14:22:55.585999872,-0.04676641,0.1763654,-0.03084449,0.06362516,0.1629623,-0.0713463,0.008192991,0.01036776,-0.006110576,-0.000402621,0.000416426,0.0004390109999999,-0.3998084,-0.4381554,1.335405
2023-10-23 14:22:55.600000000,-0.04736014,0.1750727,-0.03088382,0.06716566,0.1676737,-0.07547823,0.007438113,0.01034232,-0.005889223,-0.000754878,-2.543999999999984e-05,0.000221353,-0.3997522,-0.438006,1.335245
2023-10-23 14:22:55.612999936,-0.04774047,0.1736286,-0.0307169,0.06181153,0.1745799,-0.07204768,0.006718095,0.01033449,-0.00574678,-0.0007200179999999,-7.830000000000337e-06,0.0001424429999999,-0.3997098,-0.4378743,1.335079
2023-10-23 14:22:55.628000000,-0.04820975,0.1721511,-0.03058612,0.06320524,0.1822727,-0.07776354,0.005997274,0.009688063,-0.005771179,-0.000720821,-0.0006464269999999,-2.439900000000047e-05,-0.3996091,-0.4377791,1.3349
2023-10-23 14:22:55.640000000,-0.04856268,0.1708154,-0.03035405,0.05806601,0.1859763,-0.07826338,0.005420536,0.009884251,-0.005686191,-0.000576738,0.0001961879999999,8.498800000000025e-05,-0.3994992,-0.4376688,1.334734
2023-10-23 14:22:55.655000064,-0.04914491,0.1693673,-0.03017819,0.05687726,0.1899175,-0.08452189,0.00496749,0.009884886,-0.005614102,-0.000453046,6.350000000005657e-07,7.208900000000001e-05,-0.3994218,-0.4375524,1.334563
2023-10-23 14:22:55.668000000,-0.04945542,0.1677794,-0.02990999,0.05126187,0.1951044,-0.08966729,0.004446917,0.009896577,-0.005376176,-0.0005205729999999,1.1690999999999438e-05,0.000237926,-0.3994087,-0.437433,1.334396
2023-10-23 14:22:55.680000000,-0.0498502,0.1664153,-0.02965341,0.04789719,0.2003676,-0.08855867,0.003915246,0.009728819,-0.00535808,-0.000531671,-0.000167758,1.8095999999999564e-05,-0.399399,-0.4373195,1.334237
2023-10-23 14:22:55.694999808,-0.05026768,0.1648435,-0.02949528,0.04762452,0.2028078,-0.09166011,0.003082925,0.00938491,-0.00531097,-0.000832321,-0.0003439089999999,4.711000000000038e-05,-0.3994394,-0.4371787,1.33411
2023-10-23 14:22:55.708000000,-0.0506272,0.1631889,-0.02915245,0.04704774,0.2052912,-0.09318069,0.002408522,0.00963166,-0.005071827,-0.0006744029999999,0.00024675,0.0002391429999999,-0.3994887,-0.4370281,1.333989
2023-10-23 14:22:55.721999872,-0.05118104,0.1616622,-0.02878264,0.0491286,0.2071857,-0.09824714,0.001887814,0.0100878,-0.004901318,-0.000520708,0.0004561399999999,0.000170509,-0.3995244,-0.4368825,1.333853
2023-10-23 14:22:55.736999936,-0.05180127,0.1602125,-0.0285387,0.05011818,0.2083931,-0.1066671,0.00140025,0.01061828,-0.00480976,-0.000487564,0.00053048,9.155800000000026e-05,-0.3995484,-0.4367356,1.333697
2023-10-23 14:22:55.750999808,-0.05222983,0.1584936,-0.02823649,0.05169475,0.2092348,-0.1086778,0.000928128,0.01115236,-0.004630493,-0.000472122,0.0005340799999999,0.0001792669999999,-0.3995813,-0.4365869,1.333531
2023-10-23 14:22:55.765000192,-0.05274541,0.156999,-0.02776008,0.04926248,0.2122569,-0.112956,0.0008476896,0.01141546,-0.004460987,-8.043839999999998e-05,0.0002631,0.000169506,-0.3995992,-0.4364502,1.333384
2023-10-23 14:22:55.779000064,-0.05322781,0.1552951,-0.02736134,0.04740819,0.2117626,-0.1156435,0.0006565297,0.01078965,-0.004406998,-0.0001911598999999,-0.00062581,5.398899999999995e-05,-0.3996255,-0.4363427,1.333222
2023-10-23 14:22:55.792999936,-0.05353042,0.1537375,-0.02725374,0.04370577,0.2144333,-0.1071799,0.0008261199,0.01011206,-0.004548929,0.0001695902,-0.0006775899999999,-0.000141931,-0.3996409,-0.4362281,1.333058
2023-10-23 14:22:55.806999808,-0.05396986,0.1523585,-0.02714271,0.04746739,0.2085021,-0.09661522,0.0006925519,0.009992215,-0.004405559,-0.000133568,-0.000119845,0.00014337,-0.3996636,-0.4361009,1.332913
2023-10-23 14:22:55.822000128,-0.05450299,0.1509444,-0.02716187,0.05655313,0.2045802,-0.08649814,0.0008469102,0.01034716,-0.003904498,0.0001543583,0.0003549449999999,0.0005010609999999,-0.3996826,-0.435937,1.33279
2023-10-23 14:22:55.835000064,-0.05491322,0.1494721,-0.02705367,0.05704739,0.2008787,-0.08103833,0.0006090378,0.01068033,-0.003545063,-0.0002378724,0.00033317,0.0003594349999999,-0.3997146,-0.4357611,1.332684
2023-10-23 14:22:55.848000000,-0.05523691,0.1479801,-0.02677953,0.05518482,0.2004126,-0.08366314,2.856e-05,0.01026691,-0.003354352,-0.0005804778,-0.0004134199999999,0.000190711,-0.3997657,-0.4356245,1.332571
2023-10-23 14:22:55.861999872,-0.05555151,0.1465088,-0.02661482,0.05095416,0.2024972,-0.08303011,-0.0006464933,0.009928199,-0.003237999,-0.0006750533,-0.000338711,0.000116353,-0.3998208,-0.4355073,1.332437
2023-10-23 14:22:55.877000192,-0.05603529,0.1450298,-0.0265236,0.0484505,0.2010445,-0.08683663,-0.001417508,0.01012069,-0.00295364,-0.0007710147,0.0001924909999999,0.000284359,-0.3998883,-0.4353682,1.332309
2023-10-23 14:22:55.891000064,-0.05645454,0.1436475,-0.02639136,0.05306277,0.1997888,-0.08350029,-0.002085846,0.01006609,-0.00261734,-0.000668338,-5.4600000000000135e-05,0.0003362999999999,-0.3999386,-0.4352565,1.332203
2023-10-23 14:22:55.904999936,-0.05693296,0.1421863,-0.02609228,0.05079647,0.2014944,-0.08564392,-0.002622142,0.009721418,-0.002236717,-0.0005362959999999,-0.0003446719999999,0.000380623,-0.3999791,-0.4351816,1.332107
2023-10-23 14:22:55.917999872,-0.05739494,0.1405839,-0.02592861,0.05047932,0.1993661,-0.08578732,-0.003228451,0.00899467,-0.00198533,-0.0006063089999999,-0.000726748,0.000251387,-0.4000356,-0.4351146,1.331998
2023-10-23 14:22:55.933000192,-0.05777055,0.1391217,-0.02583772,0.05322494,0.1998436,-0.08591713,-0.003718069,0.008306006,-0.001551879,-0.000489618,-0.000688664,0.000433451,-0.4001264,-0.4350253,1.331894
2023-10-23 14:22:55.947000064,-0.05821647,0.1377035,-0.0254447,0.05226579,0.1991386,-0.08926193,-0.004152633,0.007882204,-0.000987589,-0.000434564,-0.0004238019999999,0.0005642899999999,-0.4002224,-0.4349524,1.331804
2023-10-23 14:22:55.960000000,-0.05869736,0.1363011,-0.0253164,0.05057297,0.1964075,-0.0937205,-0.004671016,0.007367651,-0.0006609551,-0.0005183829999999,-0.000514553,0.0003266339,-0.4003299,-0.4348578,1.331743
2023-10-23 14:22:55.973999872,-0.05904203,0.1347792,-0.02493443,0.05021804,0.1964497,-0.09217975,-0.004962445,0.006500733,-0.0002407368,-0.000291429,-0.000866918,0.0004202183,-0.4004409,-0.4347975,1.33169
2023-10-23 14:22:55.989000192,-0.05941398,0.1334669,-0.02460113,0.04122662,0.1934353,-0.102502,-0.005487954,0.006344406,-7.734634e-06,-0.0005255089999999,-0.0001563269999999,0.000233002166,-0.4005598,-0.4347256,1.331636
2023-10-23 14:22:56.002000128,-0.05989413,0.1320829,-0.02432709,0.04392495,0.1895837,-0.1033966,-0.00571334,0.00614917,0.0002064381,-0.000225386,-0.000195236,0.000214172734,-0.4006706,-0.4346636,1.331556
2023-10-23 14:22:56.015000064,-0.06018591,0.1306738,-0.0239457,0.04055784,0.1835673,-0.09878051,-0.006073415,0.006307603,0.0004294136,-0.000360075,0.000158433,0.0002229755,-0.4007828,-0.4346011,1.331484
2023-10-23 14:22:56.028999936,-0.06048093,0.1294053,-0.02359207,0.03383156,0.1761906,-0.09755129,-0.006558491,0.006082926,0.0004072874,-0.0004850759999999,-0.000224677,-2.2126199999999985e-05,-0.4008581,-0.434565,1.331442
2023-10-23 14:22:56.044000000,-0.06076467,0.1281575,-0.02329089,0.03069264,0.1747,-0.09851621,-0.006884551,0.005215988,0.0002403494,-0.00032606,-0.0008669379999999,-0.000166938,-0.4009343,-0.4345519,1.331394
2023-10-23 14:22:56.056999936,-0.06086831,0.1268594,-0.02285256,0.02008153,0.1746828,-0.09773222,-0.007242918,0.004810006,0.0002361267,-0.000358367,-0.000405982,-4.2227000000000096e-06,-0.4010537,-0.4345319,1.331326
2023-10-23 14:22:56.071000064,-0.06120722,0.1256516,-0.02241921,0.01805162,0.1718068,-0.09841704,-0.007669619,0.00416694,0.0001376215,-0.0004267009999999,-0.000643066,-9.85052e-05,-0.401193,-0.4345205,1.33125
2023-10-23 14:22:56.084999936,-0.06135444,0.1243799,-0.02200098,0.01263669,0.168543,-0.09850814,-0.008034823,0.004053913,0.0002546484,-0.000365204,-0.0001130269999999,0.0001170268999999,-0.4013345,-0.4344926,1.331193
2023-10-23 14:22:56.098000128,-0.06170266,0.1229971,-0.02160043,0.0159805,0.1680011,-0.1015164,-0.008333195,0.00422626,0.0005185908,-0.0002983719999999,0.0001723469999999,0.0002639424,-0.4014788,-0.4344431,1.331171
2023-10-23 14:22:56.112000000,-0.06189779,0.121861,-0.02131625,0.0205945,0.1658029,-0.09686459,-0.008759611,0.00517798,0.001086824,-0.000426416,0.00095172,0.0005682331999999,-0.4016279,-0.4343533,1.331177
2023-10-23 14:22:56.127000064,-0.06230129,0.1207495,-0.0210202,0.03083712,0.1605561,-0.09671728,-0.009225848,0.005774804,0.001400463,-0.0004662369999999,0.0005968239999999,0.000313639,-0.401786,-0.4342764,1.331138
2023-10-23 14:22:56.140000000,-0.06273743,0.1195223,-0.02074477,0.03392358,0.1608423,-0.09342078,-0.009591136,0.006713829,0.00192987,-0.000365288,0.000939025,0.000529407,-0.401948,-0.4341784,1.3311
2023-10-23 14:22:56.154000128,-0.06314013,0.1183053,-0.02044139,0.04156947,0.1571636,-0.09162827,-0.01019022,0.007027613,0.00245307,-0.0005990839999999,0.000313784,0.0005231999999999,-0.4021123,-0.4341053,1.331075
2023-10-23 14:22:56.168000000,-0.06378999,0.1171876,-0.02022311,0.04749321,0.1547612,-0.08894937,-0.01071937,0.007199144,0.002898641,-0.00052915,0.0001715309999999,0.000445571,-0.4022571,-0.4340419,1.331069
2023-10-23 14:22:56.180999936,-0.06411679,0.1160955,-0.0199601,0.05139057,0.1518475,-0.08752584,-0.01120239,0.007332845,0.003449479,-0.0004830199999999,0.0001337009999999,0.000550838,-0.4024083,-0.4339823,1.331076
2023-10-23 14:22:56.194999808,-0.06490997,0.1149984,-0.01978452,0.05621963,0.1486489,-0.08680523,-0.01192005,0.007960595,0.004117618,-0.00071766,0.00062775,0.0006681389999999,-0.4026065,-0.4338679,1.331079
2023-10-23 14:22:56.209000192,-0.06540249,0.1139245,-0.01966724,0.06642488,0.1479663,-0.08798867,-0.01239537,0.008261797,0.004876328,-0.0004753199999999,0.0003012019999999,0.00075871,-0.4028057,-0.4337544,1.331096
2023-10-23 14:22:56.224000000,-0.06601661,0.1127646,-0.0194274,0.06987378,0.1451461,-0.08752523,-0.01291691,0.008579344,0.005564068,-0.00052154,0.0003175469999999,0.00068774,-0.4030117,-0.4336176,1.331147
2023-10-23 14:22:56.236999936,-0.06663247,0.1116804,-0.01911353,0.07187909,0.1394458,-0.08911364,-0.01340145,0.00865514,0.006074174,-0.00048454,7.579600000000124e-05,0.0005101059999999,-0.403221,-0.4334724,1.331228
2023-10-23 14:22:56.252000000,-0.06725872,0.1107593,-0.01868589,0.06851652,0.1336187,-0.09189481,-0.01377865,0.008833285,0.006562283,-0.0003771999999999,0.0001781449999999,0.000488109,-0.4034332,-0.4333413,1.33131
2023-10-23 14:22:56.265000192,-0.06770413,0.1099015,-0.01842822,0.06443518,0.1279922,-0.0965371,-0.01409207,0.008583548,0.006878574,-0.00031342,-0.0002497369999999,0.0003162909999999,-0.403658,-0.4332436,1.331358
2023-10-23 14:22:56.280000000,-0.06827078,0.108932,-0.01808442,0.06026376,0.119941,-0.09559183,-0.01446424,0.008097619,0.007079434,-0.0003721699999999,-0.0004859289999999,0.0002008599999999,-0.4038769,-0.4331688,1.3314
2023-10-23 14:22:56.293999872,-0.06858392,0.1081246,-0.0176947,0.0529604,0.1158246,-0.0974701,-0.0144913,0.007606629,0.007099461,-2.7060000000000625e-05,-0.00049099,2.002699999999972e-05,-0.4040222,-0.4331259,1.331416
2023-10-23 14:22:56.308000000,-0.06905662,0.107203,-0.01729288,0.04823826,0.1132852,-0.09685159,-0.01456611,0.007053283,0.007209716,-7.480999999999981e-05,-0.000553346,0.000110255,-0.4041593,-0.433097,1.331422
2023-10-23 14:22:56.323000064,-0.06947706,0.1064317,-0.016878,0.04550541,0.1082752,-0.09620453,-0.01472411,0.006603339,0.007244432,-0.000158,-0.0004499439999999,3.471600000000061e-05,-0.4043415,-0.4330561,1.331458
2023-10-23 14:22:56.335000064,-0.06987772,0.1055597,-0.01643341,0.04076169,0.1047396,-0.0980131,-0.01468066,0.006404478,0.007360481,4.345000000000043e-05,-0.0001988609999999,0.000116049,-0.4045579,-0.4330001,1.331509
2023-10-23 14:22:56.348999936,-0.07020222,0.1048419,-0.01596626,0.03706558,0.0998676,-0.09691998,-0.0145333,0.006207015,0.007567167,0.0001473599999999,-0.000197463,0.0002066859999999,-0.4047684,-0.4329438,1.331578
2023-10-23 14:22:56.364000000,-0.07063781,0.1040425,-0.01559878,0.03666813,0.09665168,-0.09705926,-0.01414875,0.006067363,0.00810382,0.00038455,-0.0001396519999999,0.0005366529999999,-0.4049703,-0.4328302,1.331684
2023-10-23 14:22:56.377000192,-0.07102416,0.1033429,-0.01517946,0.03869439,0.09092399,-0.09611375,-0.0140665,0.006140443,0.008446339,8.225000000000073e-05,7.307999999999967e-05,0.000342519,-0.405177,-0.4327164,1.331795
2023-10-23 14:22:56.392000000,-0.07156876,0.1026994,-0.01499206,0.04438334,0.08875804,-0.09057997,-0.01388459,0.006309633,0.008934403,0.0001819099999999,0.00016919,0.0004880639999999,-0.4053751,-0.4326227,1.331897
2023-10-23 14:22:56.404999936,-0.07206085,0.1019901,-0.01461033,0.04604238,0.08736567,-0.08908189,-0.01367129,0.006937159,0.009374294,0.0002133,0.0006275259999999,0.0004398909999999,-0.405571,-0.4325356,1.331993
2023-10-23 14:22:56.418999808,-0.07259399,0.1011828,-0.0141631,0.04961374,0.08592015,-0.09411876,-0.01342245,0.006650463,0.009624643,0.0002488399999999,-0.000286696,0.000250349,-0.4057372,-0.4324892,1.332069
2023-10-23 14:22:56.433000192,-0.07282519,0.1005034,-0.01398573,0.04412932,0.08634944,-0.08253184,-0.01309179,0.006025119,0.009376892,0.00033066,-0.0006253439999999,-0.000247751,-0.4058172,-0.4324709,1.332103
2023-10-23 14:22:56.447000064,-0.07310002,0.09990726,-0.01382273,0.04161789,0.08421972,-0.0712719,-0.01269018,0.005747289,0.009305725,0.00040161,-0.0002778299999999,-7.116699999999872e-05,-0.4058959,-0.4324439,1.332149
2023-10-23 14:22:56.460999936,-0.0735113,0.09940581,-0.01392312,0.04643213,0.07994183,-0.05854905,-0.01256156,0.005862589,0.009536194,0.00012862,0.0001152999999999,0.0002304689999999,-0.4060648,-0.4323568,1.33225
2023-10-23 14:22:56.474999808,-0.07384425,0.09884545,-0.01382384,0.04513501,0.07556642,-0.04914461,-0.01277885,0.005796158,0.009788245,-0.00021729,-6.643099999999961e-05,0.0002520509999999,-0.4062538,-0.4322858,1.332356
2023-10-23 14:22:56.489000192,-0.07396099,0.09822504,-0.01377145,0.0393698,0.07823013,-0.03852997,-0.01282908,0.005215575,0.00967634,-5.023000000000007e-05,-0.000580583,-0.0001119049999999,-0.4064375,-0.4322156,1.332458
2023-10-23 14:22:56.502000128,-0.07413745,0.09777331,-0.01375031,0.03015443,0.07612221,-0.03506219,-0.01332575,0.004591588,0.009661934,-0.00049667,-0.000623987,-1.4405999999999794e-05,-0.406636,-0.432138,1.332581
2023-10-23 14:22:56.516000000,-0.07437674,0.09721226,-0.01380928,0.02769926,0.07210955,-0.03438934,-0.01362776,0.003832108,0.009551357,-0.0003020099999999,-0.0007594799999999,-0.000110577,-0.4068346,-0.4320732,1.332692
2023-10-23 14:22:56.529999872,-0.07452132,0.09682207,-0.01365953,0.02629285,0.06906895,-0.03406677,-0.01367928,0.003461709,0.009544314,-5.152000000000108e-05,-0.000370399,-7.04299999999998e-06,-0.4070315,-0.4320435,1.332799
2023-10-23 14:22:56.544000000,-0.07471102,0.09627572,-0.01354415,0.02092855,0.06439999,-0.03462134,-0.01379591,0.003142778,0.009675161,-0.0001166299999999,-0.0003189309999999,0.0001308469999999,-0.4072337,-0.4320165,1.332902
2023-10-23 14:22:56.558000128,-0.07486933,0.09600267,-0.01338232,0.01798249,0.05839185,-0.03737116,-0.01390604,0.002224801,0.009681671,-0.0001101299999999,-0.0009179769999999,6.509999999999502e-06,-0.4073912,-0.432041,1.332984
2023-10-23 14:22:56.572999936,-0.07492907,0.09546897,-0.01319622,0.01556721,0.05859191,-0.0318258,-0.01357532,0.001175354,0.009729039,0.0003307199999999,-0.001049447,4.736800000000076e-05,-0.4075218,-0.4320958,1.333038
2023-10-23 14:22:56.585999872,-0.07490842,0.0951594,-0.01314561,0.01219793,0.05368762,-0.03314723,-0.01377512,0.0002158214,0.00968417,-0.0001997999999999,-0.0009595326,-4.4868999999999465e-05,-0.407689,-0.4321384,1.333123
2023-10-23 14:22:56.600000000,-0.07489254,0.09477443,-0.01306426,0.005021889,0.05029769,-0.03292906,-0.01401488,-0.0004001517,0.009624873,-0.00023976,-0.0006159730999999,-5.929699999999982e-05,-0.4078936,-0.432165,1.333232
2023-10-23 14:22:56.614000128,-0.07495129,0.09435543,-0.01292697,0.001832418,0.05061484,-0.0294174,-0.01423916,-0.0006210407,0.009724759,-0.00022428,-0.000220889,9.988599999999868e-05,-0.4081028,-0.4321892,1.333342
2023-10-23 14:22:56.628000000,-0.0750439,0.09416454,-0.01285919,0.001435032,0.04742946,-0.02950138,-0.01445408,-0.0007266492,0.00999172,-0.0002149199999999,-0.0001056084999999,0.000266961,-0.4083334,-0.43219,1.333504
2023-10-23 14:22:56.642999808,-0.07516131,0.09381124,-0.01255336,0.002246277,0.04416465,-0.03233227,-0.01452576,-0.0006977388,0.01009837,-7.168000000000105e-05,2.8910399999999966e-05,0.0001066499999999,-0.408565,-0.4322014,1.333654
2023-10-23 14:22:56.657000192,-0.07508799,0.09356438,-0.01247668,-0.001344897,0.0392262,-0.0313078,-0.01463966,-0.0004250859,0.01012043,-0.0001139,0.0002726529,2.205999999999909e-05,-0.4087813,-0.4322007,1.333789
2023-10-23 14:22:56.670000128,-0.07497149,0.0933114,-0.01250025,-0.002064918,0.03592519,-0.02325006,-0.01455962,-0.0004185215,0.01006928,8.003999999999997e-05,6.564400000000001e-06,-5.114999999999981e-05,-0.408984,-0.4322061,1.333912
2023-10-23 14:22:56.683000064,-0.07501912,0.09309958,-0.01237863,-0.008141057,0.03229719,-0.02011235,-0.01422655,-0.000321168,0.01001762,0.00033307,9.73535e-05,-5.166000000000025e-05,-0.4091628,-0.4322266,1.334026
2023-10-23 14:22:56.697999872,-0.07464793,0.09303807,-0.01206579,-0.01683993,0.02592483,-0.0229931,-0.01379296,-0.000878156,0.00985259,0.0004335899999999,-0.000556988,-0.00016503,-0.409262,-0.4323243,1.334098
2023-10-23 14:22:56.712000000,-0.07453625,0.09288733,-0.01196401,-0.02440623,0.01700854,-0.0162443,-0.01328247,-0.001442547,0.009528715,0.00051049,-0.0005643909999999,-0.0003238749999999,-0.4093494,-0.432416,1.334156
2023-10-23 14:22:56.727000064,-0.07430571,0.09312527,-0.01185679,-0.02802584,0.008815542,-0.01430735,-0.0123626,-0.001928346,0.009313413,0.0009198699999999,-0.000485799,-0.000215302,-0.4094848,-0.4324685,1.334284
2023-10-23 14:22:56.739000064,-0.07404634,0.09323075,-0.01161116,-0.03361887,-0.00566774,-0.009819929,-0.01143706,-0.002151744,0.009120552,0.0009255399999999,-0.000223398,-0.0001928609999999,-0.4096229,-0.4325187,1.334415
2023-10-23 14:22:56.752999936,-0.07364395,0.0934875,-0.01166131,-0.03896244,-0.01709972,0.0004868907,-0.0101413,-0.002193754,0.008924726,0.00129576,-4.200999999999988e-05,-0.000195826,-0.409739,-0.4325303,1.334556
2023-10-23 14:22:56.767000064,-0.07344227,0.09395951,-0.01170959,-0.04010988,-0.03425282,0.005405786,-0.009290056,-0.002422963,0.008712473,0.000851244,-0.000229209,-0.0002122529999999,-0.4098633,-0.4325226,1.334711
2023-10-23 14:22:56.780999936,-0.07322662,0.09432267,-0.01168472,-0.03750981,-0.04333638,0.01177158,-0.007947509,-0.002477856,0.008735447,0.0013425469999999,-5.489299999999987e-05,2.297400000000025e-05,-0.4099574,-0.4325168,1.334865
2023-10-23 14:22:56.795000064,-0.07299857,0.09477291,-0.01161815,-0.03454255,-0.05015659,0.01244539,-0.00704802,-0.002256816,0.008925999,0.0008994889999999,0.00022104,0.000190552,-0.4100289,-0.4325469,1.335022
2023-10-23 14:22:56.808999936,-0.07293693,0.09518617,-0.0116395,-0.02786992,-0.05419198,0.01307499,-0.006402601,-0.002108756,0.009051826,0.000645419,0.00014806,0.000125827,-0.4100969,-0.4325696,1.335177
2023-10-23 14:22:56.823000064,-0.07275439,0.09547234,-0.01167205,-0.02597244,-0.05132262,0.01714412,-0.00590829,-0.001877004,0.009029277,0.0004943109999999,0.0002317519999999,-2.254900000000018e-05,-0.4101366,-0.432611,1.335275
2023-10-23 14:22:56.836999936,-0.07252855,0.09585097,-0.01177078,-0.02319277,-0.05081,0.02413258,-0.006204412,-0.002325056,0.008528092,-0.000296122,-0.0004480519999999,-0.000501185,-0.4101757,-0.432689,1.335322
2023-10-23 14:22:56.851000064,-0.07225153,0.0962168,-0.0119198,-0.02830805,-0.04500697,0.02998338,-0.00657016,-0.002790737,0.008132309,-0.0003657479999999,-0.000465681,-0.0003957829999999,-0.4102287,-0.4327647,1.33538
2023-10-23 14:22:56.864000000,-0.07192435,0.09629491,-0.01211576,-0.02882789,-0.03880645,0.03866012,-0.006982162,-0.003462488,0.008046729,-0.0004120019999999,-0.0006717509999999,-8.558000000000003e-05,-0.4103339,-0.4328186,1.335494
2023-10-23 14:22:56.878000128,-0.07169443,0.09666114,-0.0121951,-0.0317418,-0.03523913,0.03895289,-0.007459284,-0.003506502,0.008174713,-0.0004771219999999,-4.401399999999977e-05,0.0001279839999999,-0.4104441,-0.4328644,1.335634
2023-10-23 14:22:56.894000128,-0.07143101,0.09707297,-0.01244194,-0.03058542,-0.03548447,0.04194787,-0.00798182,-0.003652968,0.008411484,-0.000522536,-0.000146466,0.000236771,-0.4105888,-0.4328791,1.335779
2023-10-23 14:22:56.905999872,-0.07116167,0.09742007,-0.01265577,-0.0287479,-0.03676322,0.04113046,-0.008298557,-0.003840019,0.008672625,-0.0003167369999999,-0.000187051,0.0002611409999999,-0.410749,-0.4328842,1.335923
2023-10-23 14:22:56.920000000,-0.07093844,0.09781663,-0.01273428,-0.02968573,-0.03971016,0.03666771,-0.008477608,-0.003831133,0.008936265,-0.0001790509999999,8.88600000000005e-06,0.00026364,-0.4108981,-0.4329025,1.336076
2023-10-23 14:22:56.933000192,-0.07081232,0.09803787,-0.0125261,-0.02738088,-0.04394596,0.02622224,-0.008559825,-0.004244183,0.008973219,-8.221700000000075e-05,-0.00041305,3.6953999999998766e-05,-0.4110185,-0.4329864,1.336216
2023-10-23 14:22:56.948000000,-0.07057483,0.09847297,-0.012532,-0.02939549,-0.04882003,0.01968487,-0.008760595,-0.004354856,0.008864164,-0.0002007699999999,-0.0001106729999999,-0.0001090549999999,-0.4111387,-0.4330468,1.336366
2023-10-23 14:22:56.960999936,-0.07044381,0.0990061,-0.01253629,-0.0285876,-0.04899158,0.02169578,-0.00882537,-0.004519145,0.008309848,-6.477500000000129e-05,-0.0001642889999999,-0.000554316,-0.4112359,-0.433139,1.336451
2023-10-23 14:22:56.976000000,-0.07010932,0.0993038,-0.01256973,-0.03037232,-0.05196833,0.02094966,-0.009354928,-0.004400735,0.007581541,-0.0005295579999999,0.0001184099999999,-0.000728307,-0.4113525,-0.4332255,1.336503
2023-10-23 14:22:56.990000128,-0.06991879,0.0996729,-0.01258597,-0.02873361,-0.05331983,0.0224864,-0.009906394,-0.004523913,0.006859563,-0.000551466,-0.0001231779999999,-0.0007219779999999,-0.4114867,-0.4333057,1.336577
2023-10-23 14:22:57.003000064,-0.06980142,0.1001647,-0.01270905,-0.02577777,-0.05387437,0.02705266,-0.01019225,-0.004636477,0.006174683,-0.0002858559999999,-0.0001125639999999,-0.0006848799999999,-0.4116288,-0.4333639,1.336678
2023-10-23 14:22:57.016999936,-0.06957243,0.100654,-0.01275392,-0.02851427,-0.05346985,0.02589586,-0.01047954,-0.004172093,0.005536813,-0.00028729,0.000464384,-0.00063787,-0.4117815,-0.4333988,1.336769
2023-10-23 14:22:57.030999808,-0.06935065,0.1009677,-0.01280718,-0.0227698,-0.05870865,0.02999801,-0.01103095,-0.003616248,0.005244043,-0.0005514099999999,0.000555845,-0.0002927699999999,-0.4119815,-0.4333809,1.33684
2023-10-23 14:22:57.045000192,-0.06931676,0.1015137,-0.01291766,-0.01907691,-0.05897719,0.0250465,-0.01098585,-0.002788955,0.005093105,4.509999999999931e-05,0.0008272929999999,-0.000150938,-0.4121621,-0.4333409,1.336927
2023-10-23 14:22:57.060000000,-0.0691414,0.1018873,-0.01277547,-0.02274443,-0.06271024,0.02271751,-0.01083126,-0.002567841,0.004902008,0.0001545899999999,0.000221114,-0.0001910969999999,-0.4123119,-0.4333707,1.337014
2023-10-23 14:22:57.072999936,-0.06886675,0.1025674,-0.01281741,-0.0237462,-0.06488853,0.02639533,-0.01073108,-0.003286675,0.004359812,0.00010018,-0.000718834,-0.000542196,-0.4124517,-0.4334291,1.337106
2023-10-23 14:22:57.088999936,-0.06873059,0.1032664,-0.01288351,-0.02419162,-0.07359225,0.03040212,-0.01089222,-0.002863474,0.00416441,-0.0001611399999999,0.000423201,-0.0001954019999999,-0.4125847,-0.4334784,1.33716
2023-10-23 14:22:57.100000000,-0.06870966,0.103868,-0.0131713,-0.01640273,-0.0802771,0.0369841,-0.01094606,-0.00170415,0.004165395,-5.384000000000118e-05,0.001159324,9.849999999993544e-07,-0.4126961,-0.4335135,1.337154
2023-10-23 14:22:57.112999936,-0.06884798,0.1045116,-0.01313215,-0.004813585,-0.08269686,0.0319834,-0.01105231,-0.0007676434,0.004199246,-0.0001062499999999,0.0009365066,3.385100000000054e-05,-0.41281,-0.43356,1.337151
2023-10-23 14:22:57.128000000,-0.06877907,0.1050423,-0.01318517,-0.00201442,-0.08181847,0.02739289,-0.01124747,-0.0005439296,0.004377805,-0.00019516,0.0002237138,0.000178559,-0.4129622,-0.4335569,1.337245
2023-10-23 14:23:02.193000192,-0.06715392,0.1108005,-0.01882773,0.06999491,0.1301689,-0.09287139,-0.01402454,0.008682143,0.006578319,-0.0027770699999999,0.0092260726,0.0022005139999999,-0.4034394,-0.4333373,1.331313
2023-10-23 14:23:02.250999808,-0.09048526,0.1038273,-0.08017093,-0.004681842,-0.1456489,-0.03528986,-0.05990969,-0.007749941,-0.09021897,-0.04588515,-0.016432084,-0.096797289,-0.2559696,-0.4015252,2.092771
2023-10-23 14:23:02.260999936,-0.09113844,0.104376,-0.07968654,0.01686198,-0.1338064,-0.05026699,-0.06492097,-0.004340805,-0.09539622,-0.0050112799999999,0.003409136,-0.00517725,-0.2569489,-0.4015535,2.091362
2023-10-23 14:23:02.272000000,-0.09210279,0.1049771,-0.07903748,0.04673412,-0.1299733,-0.06648287,-0.07044923,-0.0005432409,-0.1021512,-0.00552826,0.0037975640999999,-0.0067549799999999,-0.2580369,-0.4015146,2.089838
2023-10-23 14:23:02.284000000,-0.09326807,0.1054294,-0.07840735,0.07425269,-0.1300121,-0.08436181,-0.07598749,0.003038197,-0.1094381,-0.00553826,0.0035814378999999,-0.0072868999999999,-0.2592278,-0.401464,2.088196
2023-10-23 14:23:02.298000128,-0.09440013,0.1057745,-0.0776482,0.09145363,-0.120802,-0.1073254,-0.08237647,0.006590196,-0.1171999,-0.0063889799999999,0.003551999,-0.0077617999999999,-0.2606335,-0.4013733,2.086448
2023-10-23 14:23:02.312000000,-0.09567087,0.1056377,-0.07692987,0.1125321,-0.1001372,-0.1267081,-0.08839777,0.008271968,-0.1241774,-0.0060213,0.0016817719999999,-0.0069774999999999,-0.2620649,-0.4012866,2.084594
2023-10-23 14:23:02.324999936,-0.0970514,0.1053048,-0.07626088,0.1289505,-0.07592557,-0.1397878,-0.09499989,0.00906766,-0.1308344,-0.00660212,0.000795692,-0.0066569999999999,-0.2635754,-0.4012224,2.082621
2023-10-23 14:23:02.339000064,-0.0981988,0.1046844,-0.07567685,0.1409554,-0.04092478,-0.1442709,-0.1016308,0.008313534,-0.1376693,-0.0066309099999999,-0.000754126,-0.0068349,-0.2651171,-0.4011806,2.08052
2023-10-23 14:23:02.352000000,-0.09932063,0.1040063,-0.07509328,0.1411145,-0.01305071,-0.1492433,-0.1079405,0.006644177,-0.1441706,-0.0063097,-0.0016693569999999,-0.0065013,-0.266743,-0.4011706,2.078348
2023-10-23 14:23:02.365999872,-0.1004255,0.1034536,-0.07452713,0.1396528,0.00580251,-0.1483435,-0.1134732,0.004714346,-0.1500037,-0.0055327,-0.001929831,-0.0058330999999999,-0.2684267,-0.4011351,2.076117
2023-10-23 14:23:02.380000000,-0.1015237,0.1026002,-0.07402911,0.1423322,0.02309736,-0.1478181,-0.1181211,0.003153185,-0.1550014,-0.0046479,-0.001561161,-0.0049977,-0.2701412,-0.4010875,2.073799
2023-10-23 14:23:02.394000128,-0.102576,0.1016839,-0.07342558,0.1410742,0.03688464,-0.1505053,-0.1223994,0.002178653,-0.1591789,-0.0042782999999999,-0.000974532,-0.0041775,-0.2719286,-0.4011105,2.071467
2023-10-23 14:23:02.407000064,-0.1035724,0.1004319,-0.07270879,0.1335128,0.05612569,-0.1633635,-0.1264342,0.0009132531,-0.162985,-0.0040347999999999,-0.0012653999,-0.0038060999999999,-0.273771,-0.4012143,2.069037
2023-10-23 14:23:02.420999936,-0.1040065,0.09915172,-0.07217627,0.1207472,0.08366305,-0.1630451,-0.1310172,-0.00111841,-0.1667835,-0.004583,-0.0020316631,-0.0037985,-0.2757439,-0.4012717,2.066582
2023-10-23 14:23:02.434000128,-0.1044979,0.09739172,-0.07145585,0.09841669,0.1227444,-0.1686943,-0.1359132,-0.003579018,-0.1702601,-0.004896,-0.002460608,-0.0034765999999999,-0.2778203,-0.4014903,2.064063
2023-10-23 14:23:02.448000000,-0.1045937,0.09546427,-0.07084459,0.07664547,0.1699483,-0.1714569,-0.1409195,-0.006753249,-0.1739737,-0.0050062999999999,-0.003174231,-0.0037136,-0.2800058,-0.401709,2.061476
2023-10-23 14:23:02.461999872,-0.1045897,0.09311411,-0.07013796,0.0541316,0.2118226,-0.180906,-0.1457022,-0.01003341,-0.1780419,-0.0047827,-0.0032801609999999,-0.0040681999999999,-0.2821272,-0.4019789,2.058757
2023-10-23 14:23:02.476999936,-0.1045268,0.09092782,-0.06962642,0.03380159,0.2473331,-0.1801218,-0.1501822,-0.01317267,-0.1827029,-0.0044799999999999,-0.0031392599999999,-0.0046609999999999,-0.2843498,-0.4022966,2.055969
2023-10-23 14:23:02.490000128,-0.1044021,0.0886894,-0.06913446,0.0230062,0.2657259,-0.1811848,-0.1535408,-0.0164689,-0.1874781,-0.0033586,-0.00329623,-0.0047752,-0.2865321,-0.4026313,2.053094
2023-10-23 14:23:02.503000064,-0.1040528,0.08644967,-0.06839654,0.008937992,0.2733495,-0.1865515,-0.1557508,-0.01937492,-0.1924219,-0.0022099999999999,-0.0029060199999999,-0.0049437999999999,-0.2887113,-0.4029557,2.050137
2023-10-23 14:23:02.516999936,-0.1039946,0.08438495,-0.0674867,-0.001342096,0.2682338,-0.1910784,-0.1579937,-0.02198734,-0.1969613,-0.0022428999999999,-0.00261242,-0.0045393999999999,-0.2909806,-0.4034005,2.047142
2023-10-23 14:23:02.530999808,-0.1037798,0.08210905,-0.06686543,-0.001673868,0.2721278,-0.1986555,-0.1599722,-0.02450606,-0.2013129,-0.0019785,-0.0025187199999999,-0.0043515999999999,-0.2932829,-0.4038266,2.044118
2023-10-23 14:23:02.545000192,-0.1038164,0.07962613,-0.06628026,0.01135975,0.2805012,-0.1981847,-0.1620983,-0.02700164,-0.2052032,-0.0021260999999999,-0.00249558,-0.0038903,-0.295583,-0.40428,2.041044
2023-10-23 14:23:02.559000064,-0.1039205,0.07730918,-0.06578363,0.02264884,0.2861777,-0.187073,-0.1644419,-0.02824431,-0.2087761,-0.0023436,-0.00124267,-0.0035728999999999,-0.2979404,-0.4047408,2.037933
2023-10-23 14:23:02.572000000,-0.10419,0.07497597,-0.0651854,0.03654128,0.2827732,-0.1885991,-0.1660982,-0.0284767,-0.2120539,-0.0016562999999999,-0.0002323899999999,-0.0032777999999999,-0.3002492,-0.4051623,2.034769
2023-10-23 14:23:02.585999872,-0.1046711,0.07291763,-0.06459823,0.05761606,0.2698746,-0.1850348,-0.1670362,-0.02814067,-0.215164,-0.0009379999999999,0.00033603,-0.0031101,-0.3025835,-0.4055918,2.031586
2023-10-23 14:23:02.600000000,-0.1052357,0.07095475,-0.06403121,0.07733924,0.2554275,-0.1896166,-0.1677623,-0.02798891,-0.2183268,-0.0007261,0.00015176,-0.0031627999999999,-0.3050047,-0.406041,2.028353
2023-10-23 14:23:02.614000128,-0.1057715,0.06878465,-0.06345137,0.08735292,0.2477008,-0.1916755,-0.1691617,-0.02835996,-0.2214765,-0.0013993999999999,-0.00037105,-0.0031497,-0.3074281,-0.4064956,2.025053
2023-10-23 14:23:02.628999936,-0.1063737,0.06662063,-0.06299449,0.09771837,0.2506553,-0.187594,-0.1709353,-0.02884345,-0.224122,-0.0017736,-0.0004834899999999,-0.0026454999999999,-0.3098238,-0.4069313,2.021751
2023-10-23 14:23:02.640999936,-0.1071009,0.06435168,-0.06245191,0.1092796,0.2538427,-0.1881688,-0.1728912,-0.02860318,-0.225725,-0.0019558999999999,0.00024027,-0.001603,-0.3122245,-0.4073369,2.018431
2023-10-23 14:23:02.656000000,-0.1078049,0.06196828,-0.06191772,0.1237122,0.2599255,-0.1958466,-0.1749655,-0.02782039,-0.2264844,-0.0020743,0.0007827899999999,-0.0007593999999999,-0.3147166,-0.4077183,2.015144
2023-10-23 14:23:02.668999936,-0.1087318,0.05956511,-0.06133174,0.1381145,0.2684207,-0.2015443,-0.1770881,-0.02722386,-0.2268422,-0.0021226,0.00059653,-0.0003577999999999,-0.3172656,-0.4081371,2.011833
2023-10-23 14:23:02.683000064,-0.1096694,0.05702896,-0.06082226,0.1499659,0.2736093,-0.2040705,-0.1789232,-0.02602207,-0.2271023,-0.0018351,0.0012017899999999,-0.0002601,-0.3197804,-0.4085,2.008512
2023-10-23 14:23:02.696999936,-0.1107451,0.05456626,-0.06014174,0.1603391,0.2749968,-0.2137803,-0.1802338,-0.0242559,-0.2272244,-0.0013105999999999,0.00176617,-0.0001220999999999,-0.3223191,-0.4088871,2.005181
2023-10-23 14:23:02.711000064,-0.1115484,0.05200398,-0.0593943,0.1604165,0.2759849,-0.224316,-0.1811356,-0.02259326,-0.227674,-0.0009018,0.00166264,-0.0004495999999999,-0.3248355,-0.4092595,2.001821
2023-10-23 14:23:02.724999936,-0.1120195,0.04941703,-0.05866187,0.1440153,0.2796997,-0.2318659,-0.1820429,-0.02171127,-0.2285451,-0.0009072999999999,0.0008819899999999,-0.0008711,-0.3273804,-0.4096047,1.998463
2023-10-23 14:23:02.739000064,-0.1122964,0.04686788,-0.0577563,0.120197,0.2835651,-0.2362067,-0.1831225,-0.02055044,-0.2293712,-0.0010795999999999,0.00116083,-0.0008260999999999,-0.3299735,-0.4099047,1.995111
2023-10-23 14:23:02.752999936,-0.1127334,0.04423161,-0.05673499,0.1044957,0.2935977,-0.242931,-0.1837881,-0.01844446,-0.2297893,-0.0006656,0.00210598,-0.0004181,-0.3325832,-0.410144,1.99176
2023-10-23 14:23:02.767000064,-0.1131842,0.04127339,-0.05591345,0.09982916,0.3077592,-0.2550459,-0.1844165,-0.01502549,-0.2299809,-0.0006284,0.0034189699999999,-0.0001915999999999,-0.3351548,-0.4102945,1.988379
2023-10-23 14:23:02.780999936,-0.1136958,0.0380659,-0.05506509,0.1057043,0.3306811,-0.2640918,-0.1850377,-0.01090795,-0.2297072,-0.0006211999999999,0.00411754,0.0002736999999999,-0.3377252,-0.4103714,1.985017
2023-10-23 14:23:02.795000064,-0.1141344,0.03472871,-0.05417595,0.1132363,0.3520683,-0.274118,-0.1857307,-0.006145468,-0.2291414,-0.0006929999999999,0.0047624819999999,0.0005658,-0.3403136,-0.410392,1.981646
2023-10-23 14:23:02.808999936,-0.1149712,0.03135373,-0.05323626,0.1280507,0.3723629,-0.2853678,-0.1850103,-0.001919089,-0.2279616,0.0007204,0.004226379,0.0011798,-0.3428862,-0.4104721,1.978301
2023-10-23 14:23:02.823000064,-0.115847,0.02787806,-0.05231391,0.1461654,0.3831281,-0.2967876,-0.1837342,0.0007495359,-0.2265175,0.0012761,0.0026686249,0.0014440999999999,-0.3453984,-0.4105366,1.974959
2023-10-23 14:23:02.836999936,-0.1165344,0.02423638,-0.05121777,0.1545544,0.3952242,-0.3090628,-0.1820133,0.002431605,-0.2247975,0.0017208999999999,0.0016820690999999,0.0017199999999999,-0.3478604,-0.4105802,1.971645
2023-10-23 14:23:02.849999872,-0.1171943,0.02048583,-0.05029845,0.1550294,0.4122284,-0.3136749,-0.1797314,0.004125981,-0.2225493,0.0022818999999999,0.001694376,0.0022482,-0.3502862,-0.4105653,1.968357
2023-10-23 14:23:02.864000000,-0.1178076,0.0166447,-0.04910212,0.1532631,0.4274618,-0.3276994,-0.1767451,0.005990218,-0.219587,0.0029863,0.001864237,0.0029623,-0.352689,-0.410556,1.96515
2023-10-23 14:23:02.878000128,-0.1181955,0.01256891,-0.04779873,0.1469567,0.4411671,-0.3453463,-0.1731844,0.007426963,-0.2165444,0.0035607,0.0014367449999999,0.0030426,-0.3549837,-0.4105391,1.961974
2023-10-23 14:23:02.892000000,-0.1183581,0.008513659,-0.04655699,0.1319788,0.4587218,-0.3556705,-0.1685582,0.008444559,-0.213238,0.0046261999999999,0.001017596,0.0033063999999999,-0.3572541,-0.4104731,1.958828
2023-10-23 14:23:02.905999872,-0.1184508,0.004224032,-0.04544932,0.1125839,0.4729871,-0.3627151,-0.163061,0.009665375,-0.2098429,0.0054971999999999,0.0012208159999999,0.0033951,-0.3593484,-0.4103851,1.955728
2023-10-23 14:23:02.920000000,-0.118462,0.000160411,-0.04442741,0.09659152,0.4846267,-0.3581114,-0.1563508,0.01113642,-0.2060903,0.0067101999999999,0.0014710449999999,0.0037525999999999,-0.3613619,-0.4102744,1.952724
2023-10-23 14:23:02.934000128,-0.1182679,-0.003800988,-0.04402673,0.08066556,0.4931068,-0.3263261,-0.1486365,0.01289879,-0.2019855,0.0077143,0.00176237,0.0041047999999999,-0.3632203,-0.4101037,1.949757
2023-10-23 14:23:02.948000000,-0.1179484,-0.007319465,-0.04436076,0.06100935,0.4973737,-0.2621588,-0.140021,0.01404066,-0.1984101,0.0086154999999999,0.0011418699999999,0.0035754,-0.3649358,-0.4099126,1.946835
2023-10-23 14:23:02.961999872,-0.1175904,-0.01049252,-0.04492258,0.04234669,0.4866513,-0.1921023,-0.1298181,0.01502026,-0.1948095,0.0102029,0.0009796,0.0036006,-0.3663964,-0.4096869,1.943976
2023-10-23 14:23:02.974999808,-0.1175071,-0.01342173,-0.04537876,0.03665605,0.4617973,-0.1450293,-0.1185504,0.01602336,-0.1907906,0.0112676999999999,0.0010030999999999,0.0040188999999999,-0.3677115,-0.409476,1.941202
2023-10-23 14:23:02.990000128,-0.1176187,-0.01626,-0.04578297,0.05057056,0.438648,-0.1174237,-0.107241,0.01685963,-0.1858061,0.0113093999999999,0.00083627,0.0049845,-0.3689665,-0.4092128,1.938529
2023-10-23 14:23:03.003000064,-0.1179303,-0.01896766,-0.04671128,0.06585928,0.4230345,-0.07877606,-0.09779392,0.01767267,-0.1807,0.0094470799999999,0.00081304,0.0051061,-0.3701259,-0.4089454,1.935965
2023-10-23 14:23:03.016999936,-0.118311,-0.02159546,-0.04778428,0.08353459,0.4123685,-0.04019491,-0.08887938,0.01795888,-0.1753857,0.00891454,0.0002862099999999,0.0053142999999999,-0.3711285,-0.4086476,1.933476
2023-10-23 14:23:03.030999808,-0.1188045,-0.02393951,-0.04878581,0.09729367,0.3905905,-0.008921533,-0.08078516,0.01784695,-0.1698394,0.00809422,-0.0001119299999999,0.0055463,-0.3720124,-0.408336,1.931077
2023-10-23 14:23:03.045000192,-0.1194643,-0.02629115,-0.04984685,0.1131599,0.3746892,0.01112424,-0.07313147,0.0174525,-0.1637726,0.0076536899999999,-0.00039445,0.0060668,-0.3728293,-0.4080563,1.928765
2023-10-23 14:23:03.059000064,-0.1200252,-0.02853815,-0.05099978,0.1215559,0.3615418,0.02488197,-0.06732174,0.01659386,-0.1578049,0.0058097299999999,-0.00085864,0.0059676999999999,-0.3736391,-0.4078087,1.926553
2023-10-23 14:23:03.072999936,-0.120596,-0.03075577,-0.051948,0.1248977,0.3528289,0.03096175,-0.06207769,0.01496068,-0.1517571,0.00524405,-0.0016331799999999,0.0060477999999999,-0.3744026,-0.4076138,1.924401
2023-10-23 14:23:03.086999808,-0.1210017,-0.03293774,-0.0527056,0.122616,0.344765,0.02444322,-0.05735975,0.01277156,-0.1460977,0.0047179399999999,-0.00218912,0.0056594,-0.3751037,-0.4074313,1.922337
2023-10-23 14:23:03.100000000,-0.1214301,-0.03526723,-0.05330537,0.1173419,0.3337699,0.006949457,-0.05341451,0.01046678,-0.1407062,0.00394524,-0.0023047799999999,0.0053914999999999,-0.3757489,-0.407319,1.920326
2023-10-23 14:23:03.114000128,-0.121801,-0.03756584,-0.05396079,0.1128169,0.3297109,-0.006090374,-0.05010602,0.008140552,-0.1353313,0.0033084899999999,-0.0023262279999999,0.0053749,-0.3763621,-0.4072133,1.918392
2023-10-23 14:23:03.128999936,-0.1220473,-0.0398857,-0.05445234,0.1056914,0.3307014,-0.01815162,-0.04698874,0.005356449,-0.1299015,0.00311728,-0.002784103,0.0054297999999999,-0.3769385,-0.407206,1.916552
2023-10-23 14:23:03.141999872,-0.1220268,-0.04223101,-0.05513701,0.08616847,0.3379185,-0.02684746,-0.0433936,0.002356101,-0.1243078,0.00359514,-0.003000348,0.0055937,-0.3774479,-0.4072236,1.91478
2023-10-23 14:23:03.156000000,-0.1219675,-0.04452825,-0.05582792,0.0703989,0.3383441,-0.02300802,-0.03996089,-0.0007873155,-0.1194209,0.0034327099999999,-0.0031434165,0.0048869,-0.3778472,-0.407245,1.913065
2023-10-23 14:23:03.170000128,-0.1217813,-0.04665321,-0.05657054,0.05095598,0.3362049,-0.01965964,-0.03592923,-0.003305411,-0.1145725,0.0040316599999999,-0.0025180955,0.0048484,-0.3781567,-0.4072868,1.911399
2023-10-23 14:23:03.184000000,-0.121376,-0.04880697,-0.05742778,0.03143176,0.3372223,-0.01801146,-0.03130441,-0.005484863,-0.1094784,0.00462482,-0.002179452,0.0050940999999999,-0.3783941,-0.4073566,1.909813
2023-10-23 14:23:03.196999936,-0.1206807,-0.05087812,-0.0582884,0.00622418,0.3354105,-0.01382532,-0.02679757,-0.00787644,-0.1044308,0.0045068399999999,-0.0023915769999999,0.0050475999999999,-0.3786548,-0.4074428,1.908332
2023-10-23 14:23:03.212000000,-0.1199525,-0.05297622,-0.05896138,-0.02058971,0.333499,-0.01371164,-0.02250274,-0.009617339,-0.0996547,0.0042948299999999,-0.001740899,0.0047761,-0.3788402,-0.4075794,1.906933
2023-10-23 14:23:03.226000128,-0.1189566,-0.0549541,-0.05969176,-0.04704476,0.3302852,-0.01564601,-0.01797727,-0.01050127,-0.09483638,0.00452547,-0.0008839309999999,0.00481832,-0.3789425,-0.4076464,1.905563
2023-10-23 14:23:03.239000064,-0.1179435,-0.05693363,-0.06053666,-0.06806935,0.327218,-0.01668614,-0.01357106,-0.01076094,-0.09021922,0.00440621,-0.00025967,0.0046171599999999,-0.3789485,-0.4077109,1.904257
2023-10-23 14:23:03.252999936,-0.1173218,-0.05886652,-0.06112655,-0.064517,0.3163808,-0.01972358,-0.009417623,-0.01067949,-0.08521269,0.0041534369999999,8.145000000000027e-05,0.00500653,-0.3789273,-0.4077801,1.903049
2023-10-23 14:23:03.268000000,-0.1168696,-0.06062053,-0.06195291,-0.05077539,0.3084636,-0.01613023,-0.004927491,-0.009415856,-0.08005437,0.004490132,0.0012636339999999,0.0051583199999999,-0.3788841,-0.4078331,1.901931
2023-10-23 14:23:03.280999936,-0.116964,-0.06231812,-0.06240908,-0.02126527,0.2906325,-0.009150997,-0.000471212,-0.007428692,-0.07510155,0.004456279,0.001987164,0.0049528199999999,-0.3787709,-0.4078663,1.900881
2023-10-23 14:23:03.295000064,-0.117192,-0.06390824,-0.0628869,0.01501568,0.2665427,-0.005634682,0.004182556,-0.0038439,-0.0704449,0.004653768,0.003584792,0.0046566499999999,-0.3785297,-0.4077283,1.899855
2023-10-23 14:23:03.308999936,-0.1181003,-0.06531312,-0.0633326,0.06683769,0.239176,0.000593758,0.008452425,-0.00080994,-0.06634622,0.004269869,0.00303396,0.00409868,-0.3782566,-0.4076754,1.898879
2023-10-23 14:23:03.323000064,-0.118808,-0.06675716,-0.06367968,0.1003355,0.2188747,0.004547289,0.0124994,0.0008740039,-0.06259195,0.004046975,0.0016839439,0.00375427,-0.3779484,-0.4076301,1.89795
2023-10-23 14:23:03.336999936,-0.1194983,-0.06805611,-0.06411529,0.1179026,0.2011894,0.01042921,0.01651711,0.00332658,-0.05915486,0.00401771,0.0024525761,0.0034370899999999,-0.377602,-0.4074296,1.897123
2023-10-23 14:23:03.349999872,-0.1205807,-0.06919965,-0.0644749,0.1416329,0.1790931,0.01893333,0.02000697,0.007829222,-0.05514469,0.0034898599999999,0.004502642,0.0040101699999999,-0.3772258,-0.4071313,1.896387
2023-10-23 14:23:03.364000000,-0.1220051,-0.07010672,-0.06505881,0.1666037,0.1608485,0.03626885,0.02355454,0.01395757,-0.05080426,0.00354757,0.006128348,0.00434043,-0.376791,-0.4067447,1.895671
2023-10-23 14:23:03.378000128,-0.1235108,-0.07113794,-0.06560605,0.1913755,0.1458476,0.05229491,0.02666991,0.01975648,-0.04625085,0.00311537,0.0057989099999999,0.0045534099999999,-0.3762921,-0.4063322,1.895043
2023-10-23 14:23:03.392999936,-0.1249885,-0.07193705,-0.06629258,0.2049914,0.1338842,0.07237191,0.02958825,0.02391781,-0.04182719,0.0029183399999999,0.00416133,0.00442366,-0.3758121,-0.4059249,1.894461
2023-10-23 14:23:03.405999872,-0.126275,-0.07263515,-0.06719782,0.200606,0.1251225,0.09312506,0.03258673,0.0261055,-0.03783428,0.00299848,0.0021876899999999,0.00399291,-0.3752756,-0.4055437,1.893939
2023-10-23 14:23:03.420000000,-0.1274903,-0.07324664,-0.06782287,0.1965565,0.1162945,0.1026483,0.03562498,0.02542637,-0.03451947,0.0030382499999999,-0.00067913,0.00331481,-0.3746975,-0.4051944,1.893446
2023-10-23 14:23:03.434000128,-0.1285521,-0.07390632,-0.0685486,0.1773116,0.1113899,0.1054052,0.03830039,0.02226895,-0.03209389,0.0026754099999999,-0.00315742,0.0024255799999999,-0.3740138,-0.4049484,1.892934
2023-10-23 14:23:03.447000064,-0.1291127,-0.07468519,-0.06925321,0.1482127,0.1118361,0.09707608,0.04076125,0.01824247,-0.03007497,0.00246086,-0.0040264799999999,0.00201892,-0.3732651,-0.4046754,1.892473
2023-10-23 14:23:03.461999872,-0.1296265,-0.07525803,-0.06984095,0.1222241,0.1105482,0.08873836,0.04272022,0.01432743,-0.02798989,0.00195897,-0.00391504,0.0020850799999999,-0.3726382,-0.4044838,1.892073
2023-10-23 14:23:03.476000000,-0.1302003,-0.07586493,-0.07042913,0.1050322,0.1078549,0.07780463,0.04448373,0.011781,-0.02600151,0.0017635099999999,-0.00254643,0.00198838,-0.3719648,-0.4043196,1.891715
2023-10-23 14:23:03.489000192,-0.1307133,-0.07651905,-0.07094987,0.09309707,0.1034859,0.0643836,0.04650181,0.009735455,-0.02365087,0.0020180799999999,-0.0020455449999999,0.0023506399999999,-0.3712351,-0.4042344,1.891376
2023-10-23 14:23:03.503000064,-0.1309917,-0.07716849,-0.07120111,0.07945553,0.09981479,0.05257395,0.04858071,0.008208713,-0.02160931,0.0020789,-0.001526742,0.00204156,-0.3704666,-0.4040626,1.891043
2023-10-23 14:23:03.516999936,-0.1315689,-0.07774229,-0.07148342,0.07548703,0.09665042,0.04609649,0.05047991,0.007565967,-0.01917285,0.0018992,-0.0006427459999999,0.0024364599999999,-0.3697086,-0.403923,1.890758
2023-10-23 14:23:03.530999808,-0.1321571,-0.07832185,-0.07194571,0.08171505,0.08991779,0.04170036,0.05200021,0.007686584,-0.01670278,0.0015202999999999,0.0001206169999999,0.00247007,-0.3689281,-0.4037943,1.890537
2023-10-23 14:23:03.545000192,-0.1326779,-0.07888228,-0.07233971,0.08583461,0.08607427,0.03825719,0.0533256,0.007437743,-0.01437609,0.00132539,-0.0002488409999999,0.00232669,-0.3681554,-0.4037028,1.890334
2023-10-23 14:23:03.559000064,-0.1332129,-0.07954583,-0.07226943,0.08928385,0.08330104,0.02507255,0.05444561,0.006429804,-0.01269709,0.0011200099999999,-0.001007939,0.001679,-0.3673778,-0.4036533,1.890114
2023-10-23 14:23:03.572999936,-0.1335877,-0.08021892,-0.07209611,0.09133502,0.07959758,0.003546884,0.05567892,0.005147614,-0.01123199,0.00123331,-0.00128219,0.0014650999999999,-0.3665737,-0.4035938,1.889919
2023-10-23 14:23:03.585999872,-0.1341203,-0.08094959,-0.07172163,0.09334565,0.07304545,-0.02201269,0.05686874,0.004409591,-0.00976558,0.00118982,-0.000738023,0.00146641,-0.3657405,-0.4035859,1.889763
2023-10-23 14:23:03.601000192,-0.1347021,-0.08159605,-0.07123275,0.1036089,0.06261814,-0.0436596,0.05827468,0.003725452,-0.008109313,0.00140594,-0.0006841389999999,0.0016562669999999,-0.3648915,-0.4035957,1.889646
2023-10-23 14:23:03.615000064,-0.1351669,-0.08234721,-0.07071045,0.1053475,0.05598641,-0.06227968,0.05999863,0.003462582,-0.006139331,0.0017239499999999,-0.00026287,0.001969982,-0.3640104,-0.4035853,1.889567
2023-10-23 14:23:03.628000000,-0.1357129,-0.08308057,-0.07021558,0.1118866,0.05367545,-0.073261,0.06192972,0.002772307,-0.003860529,0.00193109,-0.000690275,0.0022788019999999,-0.363072,-0.4036319,1.889483
2023-10-23 14:23:03.641999872,-0.1361867,-0.08392613,-0.06958129,0.1140026,0.05425337,-0.08069775,0.06368414,0.001991956,-0.001552181,0.0017544199999999,-0.0007803509999999,0.002308348,-0.3620737,-0.4036869,1.889415
2023-10-23 14:23:03.656000000,-0.1366503,-0.08475629,-0.06911688,0.1147883,0.0571324,-0.08925926,0.06555495,0.0006451469,0.0009427089,0.00187081,-0.0013468091,0.0024948899,-0.3610964,-0.4037881,1.889416
2023-10-23 14:23:03.670000128,-0.137105,-0.08559236,-0.06845415,0.1119536,0.06132089,-0.08897264,0.06726444,-0.001523689,0.003373748,0.0017094899999999,-0.0021688359,0.0024310391,-0.3601355,-0.4039192,1.889469
2023-10-23 14:23:03.683000064,-0.1372782,-0.08640222,-0.06818246,0.09975789,0.06686009,-0.08787217,0.06893162,-0.004143998,0.005516432,0.00166718,-0.002620309,0.0021426839999999,-0.3590972,-0.4040738,1.889536
2023-10-23 14:23:03.697999872,-0.1373361,-0.0871634,-0.06780997,0.08367904,0.07046618,-0.08427487,0.0705674,-0.00799968,0.007411042,0.00163578,-0.003855682,0.0018946099999999,-0.3580247,-0.4043019,1.889618
2023-10-23 14:23:03.711000064,-0.1371885,-0.08798837,-0.06746389,0.05654575,0.07812767,-0.08608465,0.07238088,-0.0114854,0.009011966,0.0018134799999999,-0.0034857199999999,0.001600924,-0.356938,-0.4045777,1.889724
2023-10-23 14:23:03.724999936,-0.1370527,-0.08857688,-0.06702238,0.0355385,0.07439524,-0.09327,0.07397491,-0.014395,0.01054188,0.00159403,-0.0029096,0.001529914,-0.3558902,-0.4048805,1.889871
2023-10-23 14:23:03.739000064,-0.1368969,-0.08912298,-0.0666501,0.0271137,0.06582627,-0.09074184,0.07574784,-0.01683756,0.01224555,0.0017729299999999,-0.00244256,0.0017036699999999,-0.3548051,-0.4051488,1.890056
2023-10-23 14:23:03.752999936,-0.1367777,-0.08952356,-0.06633464,0.01856672,0.05160395,-0.08211505,0.07743084,-0.01873805,0.01366659,0.001683,-0.0019004899999999,0.00142104,-0.3536956,-0.4055077,1.890193
2023-10-23 14:23:03.767000064,-0.1365729,-0.08966162,-0.06576684,0.007084083,0.03335728,-0.08186261,0.07933608,-0.02066727,0.01509283,0.00190524,-0.00192922,0.00142624,-0.3526171,-0.4059179,1.890339
2023-10-23 14:23:03.782000128,-0.1363015,-0.08959399,-0.06524521,-0.001333881,0.00909448,-0.08003244,0.08102422,-0.02280681,0.01663309,0.0016881399999999,-0.0021395399999999,0.00154026,-0.3515017,-0.4063053,1.890581
2023-10-23 14:23:03.795000064,-0.1361168,-0.08948272,-0.06474485,-0.007159961,-0.0145156,-0.07031528,0.08256651,-0.02455541,0.01843631,0.00154229,-0.0017485999999999,0.00180322,-0.3502994,-0.4066603,1.890904
2023-10-23 14:23:03.808000000,-0.1360838,-0.08915231,-0.06427311,-0.0105452,-0.037363,-0.06574769,0.08403011,-0.02534815,0.02011903,0.0014636,-0.00079274,0.0016827199999999,-0.3491113,-0.4070973,1.891253
2023-10-23 14:23:03.823000064,-0.1357826,-0.08867725,-0.06383698,-0.01725349,-0.05656665,-0.05758009,0.08526121,-0.02576337,0.02197461,0.0012310999999999,-0.00041522,0.0018555799999999,-0.3478987,-0.4074546,1.891583
2023-10-23 14:23:03.836000000,-0.135681,-0.08812964,-0.06321203,-0.02117908,-0.07171472,-0.05406332,0.0863442,-0.02581528,0.02395272,0.0010829899999999,-5.190999999999876e-05,0.00197811,-0.3466876,-0.4078597,1.891942
2023-10-23 14:23:03.849999872,-0.135706,-0.08750945,-0.06250636,-0.01501391,-0.08888569,-0.05549668,0.08697081,-0.02564686,0.02607299,0.0006266099999999,0.0001684199999999,0.00212027,-0.3454985,-0.4082558,1.892381
2023-10-23 14:23:03.864999936,-0.1356447,-0.08705451,-0.06203159,-0.01236387,-0.09691436,-0.05361938,0.08767284,-0.02512017,0.02848724,0.00070203,0.0005266899999999,0.0024142499999999,-0.3442438,-0.4086137,1.892887
2023-10-23 14:23:03.878000128,-0.1356583,-0.08639972,-0.06121288,-0.006284927,-0.1085327,-0.05540834,0.0879207,-0.02449849,0.03071444,0.00024786,0.0006216799999999,0.0022271999999999,-0.3430695,-0.4089786,1.893372
2023-10-23 14:23:03.892000000,-0.1355577,-0.08574688,-0.0606516,-0.003060785,-0.1128658,-0.05078474,0.08819394,-0.02429635,0.03304683,0.0002732399999999,0.0002021399999999,0.00233239,-0.3419397,-0.4093348,1.893872
2023-10-23 14:23:03.905999872,-0.1356146,-0.08515803,-0.05999001,-0.004843416,-0.1175392,-0.04794602,0.08806019,-0.02467097,0.03498428,-0.00013375,-0.0003746199999999,0.00193745,-0.34078,-0.4097677,1.894399
2023-10-23 14:23:03.920000000,-0.1354957,-0.08453243,-0.05938349,-0.007662017,-0.1141105,-0.05108731,0.08808477,-0.02497378,0.03711417,2.458000000001015e-05,-0.00030281,0.00212989,-0.3396191,-0.410156,1.89499
2023-10-23 14:23:03.933000192,-0.1354106,-0.08412709,-0.05867876,-0.01047901,-0.1130113,-0.05480406,0.08750454,-0.0251724,0.03878366,-0.00058023,-0.00019862,0.0016694899999999,-0.3384537,-0.4105855,1.895606
2023-10-23 14:23:03.947000064,-0.1352597,-0.08363304,-0.05811945,-0.0127672,-0.1029467,-0.05699509,0.08699661,-0.02519477,0.04092047,-0.00050793,-2.2369999999997253e-05,0.00213681,-0.3373403,-0.4109811,1.896257
2023-10-23 14:23:03.960999936,-0.1350711,-0.0833294,-0.05764732,-0.0133157,-0.09419286,-0.05822843,0.08630725,-0.02468568,0.0427258,-0.00068936,0.0005090899999999,0.00180533,-0.3361423,-0.4113084,1.896847
2023-10-23 14:23:03.974999808,-0.1349185,-0.0829577,-0.05695498,-0.01246717,-0.08352768,-0.05936938,0.08564883,-0.02360611,0.04462704,-0.00065842,0.00107957,0.0019012399999999,-0.3350109,-0.4116029,1.89746
2023-10-23 14:23:03.989000192,-0.1350434,-0.08291384,-0.05656141,-0.001949421,-0.07067925,-0.05509078,0.08491109,-0.02221905,0.0467407,-0.00073774,0.0013870599999999,0.00211366,-0.3338217,-0.4119176,1.898132
2023-10-23 14:23:04.003000064,-0.1350287,-0.08289294,-0.05584442,0.0063021,-0.0593373,-0.06298619,0.08381581,-0.02053437,0.0486411,-0.0010952799999999,0.00168468,0.0019003999999999,-0.332694,-0.4122036,1.898844
2023-10-23 14:23:04.016999936,-0.1350533,-0.08301213,-0.05541817,0.01587393,-0.04087749,-0.06626701,0.08251637,-0.0193764,0.05040205,-0.0012994399999999,0.00115797,0.0017609499999999,-0.3316286,-0.4124602,1.899572
2023-10-23 14:23:04.029999872,-0.1352334,-0.08332182,-0.05490936,0.02657597,-0.02381822,-0.06993318,0.08083118,-0.0175464,0.05206793,-0.00168519,0.0018299999999999,0.00166588,-0.3306248,-0.4126958,1.900361
2023-10-23 14:23:04.045000192,-0.1355291,-0.08377272,-0.05452478,0.042094,-0.004505816,-0.0676913,0.07942028,-0.01540045,0.0541028,-0.0014109,0.00214595,0.00203487,-0.3296183,-0.4128651,1.901174
2023-10-23 14:23:04.059000064,-0.1361577,-0.0843535,-0.05407271,0.05761767,0.01410564,-0.06295464,0.07811312,-0.01328562,0.05620425,-0.00130716,0.00211483,0.0021014499999999,-0.3285721,-0.4130932,1.901963
2023-10-23 14:23:04.072000000,-0.136483,-0.08495097,-0.05370607,0.07279941,0.03020456,-0.06118511,0.0770095,-0.0112636,0.05832601,-0.0011036199999999,0.0020220199999999,0.00212176,-0.327526,-0.413198,1.902779
2023-10-23 14:23:04.085999872,-0.1369987,-0.08564814,-0.05340855,0.08733078,0.04385282,-0.06140137,0.07616541,-0.009584645,0.06046162,-0.0008440899999999,0.001678955,0.00213561,-0.3264723,-0.4133143,1.903587
2023-10-23 14:23:04.100000000,-0.1374329,-0.08642536,-0.05308325,0.09093365,0.05418242,-0.06135648,0.07520415,-0.007790949,0.06216066,-0.00096126,0.0017936959999999,0.0016990399999999,-0.3254201,-0.4134058,1.904336
2023-10-23 14:23:04.114000128,-0.138053,-0.08735762,-0.05269077,0.1025682,0.06827565,-0.06861191,0.07475882,-0.006442539,0.06402095,-0.0004453299999999,0.00134841,0.0018602899999999,-0.3243721,-0.41352,1.905127
2023-10-23 14:23:04.128000000,-0.1385217,-0.08832835,-0.05232364,0.1031414,0.0802476,-0.07486147,0.07400642,-0.004462346,0.06587613,-0.0007524,0.001980193,0.00185518,-0.3233519,-0.4135674,1.906009
2023-10-23 14:23:04.141999872,-0.1390092,-0.08918248,-0.05213994,0.09924521,0.08921231,-0.06569573,0.07306246,-0.003338158,0.06731232,-0.00094396,0.001124188,0.0014361899999999,-0.3223631,-0.4136519,1.906907
2023-10-23 14:23:04.156000000,-0.1391739,-0.09014325,-0.05209614,0.09257358,0.102555,-0.05979536,0.0726148,-0.003084844,0.06865001,-0.00044766,0.0002533139999999,0.00133769,-0.3213976,-0.4136818,1.907836
2023-10-23 14:23:04.168999936,-0.1396656,-0.09115919,-0.0519107,0.09359977,0.1070473,-0.05816897,0.07198583,-0.003796911,0.07021713,-0.0006289699999999,-0.0007120669999999,0.00156712,-0.3204527,-0.4137751,1.908813
2023-10-23 14:23:04.183000064,-0.1401279,-0.09208594,-0.05180277,0.0930911,0.1085381,-0.05639362,0.07160851,-0.003941098,0.07184747,-0.00037732,-0.0001441869999999,0.0016303399999999,-0.3195159,-0.4138095,1.909792
2023-10-23 14:23:04.197999872,-0.1407327,-0.09318548,-0.05165422,0.1003716,0.108158,-0.05688578,0.071609,-0.002791371,0.0736637,4.900000000057636e-07,0.0011497269999999,0.00181623,-0.3184578,-0.4138311,1.91081
2023-10-23 14:23:04.212000000,-0.1413171,-0.0940652,-0.05148592,0.1069428,0.1098361,-0.04750047,0.07168063,-0.001167809,0.07526452,7.16299999999892e-05,0.001623562,0.00160082,-0.3174997,-0.4138086,1.911823
2023-10-23 14:23:04.226000128,-0.1419285,-0.09493786,-0.05151588,0.1104543,0.1107435,-0.03915164,0.07130446,5.028537e-05,0.07614822,-0.0003761699999999,0.00121809437,0.0008837,-0.3164803,-0.4137997,1.912766
2023-10-23 14:23:04.239000064,-0.1423726,-0.09586803,-0.05156854,0.1063721,0.1134928,-0.0343782,0.07065546,0.001409637,0.07652873,-0.0006489999999999,0.00135935163,0.00038051,-0.3154545,-0.4137273,1.91369
2023-10-23 14:23:04.252999936,-0.1429629,-0.09688319,-0.05170597,0.1045712,0.1174972,-0.02665966,0.06978298,0.002807947,0.07699949,-0.00087248,0.0013983099999999,0.00047076,-0.3144161,-0.4136604,1.914679
2023-10-23 14:23:04.267000064,-0.1437072,-0.09783424,-0.05201162,0.1117997,0.1221252,-0.01291824,0.06877138,0.002821667,0.07745893,-0.0010116,1.3720000000000052e-05,0.0004594399999999,-0.3134724,-0.4136724,1.91569
2023-10-23 14:23:04.280999936,-0.1443287,-0.09897941,-0.05200805,0.1134539,0.1285008,-0.0126979,0.06771262,0.002139399,0.0778885,-0.0010587599999999,-0.0006822679999999,0.00042957,-0.312561,-0.4136876,1.916706
2023-10-23 14:23:04.295000064,-0.1449511,-0.1002793,-0.05212073,0.1151809,0.1459367,-0.02290943,0.06567891,0.001581686,0.07812224,-0.00203371,-0.000557713,0.0002337399999999,-0.3117976,-0.4136443,1.917704
2023-10-23 14:23:04.308999936,-0.1454789,-0.1017693,-0.05262552,0.1156565,0.1698137,-0.01865501,0.06241055,0.002558347,0.0780099,-0.0032683599999999,0.000976661,-0.00011234,-0.3110671,-0.4134766,1.918714
2023-10-23 14:23:04.323000064,-0.1463608,-0.1035838,-0.05314583,0.1247996,0.1985512,-0.004824203,0.05879036,0.004069037,0.0779226,-0.00362019,0.00151069,-8.729999999999849e-05,-0.3102631,-0.4133819,1.91969
2023-10-23 14:23:04.336000000,-0.1470355,-0.1054121,-0.05396448,0.129926,0.2260844,0.00517817,0.05551279,0.005768483,0.07781092,-0.00327757,0.0016994459999999,-0.0001116799999999,-0.3095283,-0.4132331,1.920657
2023-10-23 14:23:04.349999872,-0.1477136,-0.1071652,-0.05455419,0.1306688,0.2497197,0.01300864,0.05258683,0.006923071,0.0777327,-0.0029259599999999,0.001154588,-7.822000000000384e-05,-0.3088557,-0.4130864,1.921589
2023-10-23 14:23:04.364000000,-0.1483623,-0.1089343,-0.05543977,0.1249427,0.2588038,0.01967346,0.05011792,0.008154766,0.07732107,-0.0024689099999999,0.001231695,-0.0004116299999999,-0.3080579,-0.4128846,1.922481
2023-10-23 14:23:04.378000128,-0.1492839,-0.1103639,-0.05593132,0.1311725,0.2509433,0.02486959,0.04881589,0.008953632,0.07729244,-0.00130203,0.0007988659999999,-2.863000000000171e-05,-0.3072749,-0.4127107,1.923377
2023-10-23 14:23:04.392000000,-0.1497964,-0.1115396,-0.05659329,0.1265953,0.2268326,0.02788234,0.04844791,0.009387388,0.07726191,-0.00036798,0.000433756,-3.0530000000000834e-05,-0.3065239,-0.4125293,1.924348
2023-10-23 14:23:04.405999872,-0.1504834,-0.1126472,-0.05654998,0.1219656,0.1967587,0.01292165,0.04887152,0.008855063,0.07701212,0.00042361,-0.000532325,-0.0002497899999999,-0.305821,-0.4124857,1.925332
2023-10-23 14:23:04.420000000,-0.150793,-0.1135877,-0.0567762,0.105696,0.1711838,0.003214627,0.04940378,0.007565131,0.07668743,0.0005322599999999,-0.0012899319999999,-0.00032469,-0.3051202,-0.4123858,1.926313
2023-10-23 14:23:04.434000128,-0.1509609,-0.1142508,-0.05716624,0.08285473,0.1453743,0.00136229,0.04956977,0.006676373,0.07608967,0.0001659899999999,-0.0008887579999999,-0.00059776,-0.3043955,-0.4122696,1.927321
2023-10-23 14:23:04.447000064,-0.1512858,-0.1147555,-0.05737088,0.06427063,0.1221457,0.009493131,0.04992753,0.006113945,0.07564341,0.0003577599999999,-0.000562428,-0.00044626,-0.3036868,-0.4121706,1.928344
2023-10-23 14:23:04.460999936,-0.1514433,-0.1152,-0.05782745,0.04775953,0.1015676,0.01661849,0.05051243,0.005754713,0.07546625,0.0005848999999999,-0.000359232,-0.0001771599999999,-0.302929,-0.412094,1.929368
2023-10-23 14:23:04.474999808,-0.1516457,-0.1155136,-0.05792831,0.03669721,0.08259916,0.01598294,0.05087542,0.004934656,0.07495056,0.00036299,-0.0008200569999999,-0.0005156899999999,-0.3022293,-0.4120707,1.930355
2023-10-23 14:23:04.489000192,-0.1514346,-0.1157804,-0.05826851,0.02253981,0.06984169,0.01547802,0.05115244,0.003781927,0.07411951,0.00027702,-0.001152729,-0.0008310499999999,-0.3014406,-0.4119584,1.931301
2023-10-23 14:23:04.503000064,-0.1515193,-0.115987,-0.05867107,0.009857121,0.06403316,0.0220846,0.05147738,0.002018073,0.07300957,0.00032494,-0.001763854,-0.00110994,-0.3006153,-0.4119474,1.932192
2023-10-23 14:23:04.516999936,-0.1513605,-0.1162199,-0.05911772,-0.006825523,0.05989605,0.02731298,0.05145086,0.0003325038,0.07158109,-2.6520000000002097e-05,-0.0016855692,-0.0014284799999999,-0.2997949,-0.4119196,1.933059
2023-10-23 14:23:04.530999808,-0.1511349,-0.1164493,-0.05962496,-0.02152596,0.059499,0.0360827,0.05104511,-0.001979533,0.07012333,-0.00040575,-0.0023120368,-0.00145776,-0.2990745,-0.4119467,1.93399
2023-10-23 14:23:04.544000000,-0.150987,-0.1164341,-0.06021513,-0.02954319,0.05407371,0.03872793,0.05062255,-0.003846674,0.06880823,-0.0004225599999999,-0.001867141,-0.0013150999999999,-0.2984003,-0.4120068,1.934914
2023-10-23 14:23:04.559000064,-0.1509826,-0.1164366,-0.06080871,-0.03214995,0.04974478,0.05142774,0.05031954,-0.005441344,0.0676503,-0.0003030099999999,-0.0015946699999999,-0.00115793,-0.2976901,-0.4120873,1.935811
2023-10-23 14:23:04.572999936,-0.150958,-0.1163349,-0.0615603,-0.03270319,0.04442775,0.06683283,0.05002172,-0.006113344,0.06650319,-0.00029782,-0.0006719999999999,-0.0011471099999999,-0.2969998,-0.4121154,1.936709
2023-10-23 14:23:04.586999808,-0.1509251,-0.1162281,-0.06231329,-0.03310538,0.04062641,0.08433265,0.04957279,-0.00606931,0.06531462,-0.00044893,4.403400000000009e-05,-0.00118857,-0.2963,-0.4121297,1.937586
2023-10-23 14:23:04.600000000,-0.1510471,-0.1158644,-0.06318276,-0.03523181,0.03186309,0.09756543,0.04883084,-0.005621065,0.06386022,-0.0007419499999999,0.0004482449999999,-0.0014544,-0.2956561,-0.4121746,1.938434
2023-10-23 14:23:04.614000128,-0.1511075,-0.1155177,-0.06396607,-0.03668696,0.01856536,0.1064264,0.04793309,-0.005170145,0.06214561,-0.00089775,0.0004509199999999,-0.0017146099999999,-0.2949816,-0.412172,1.939281
2023-10-23 14:23:04.628000000,-0.1511006,-0.114931,-0.06479651,-0.04042533,0.008102617,0.1156323,0.04751257,-0.004676196,0.06040997,-0.00042052,0.000493949,-0.0017356399999999,-0.2942652,-0.4121325,1.940049
2023-10-23 14:23:04.640999936,-0.1512222,-0.1143925,-0.06547083,-0.03881804,-0.006562841,0.1165268,0.0468598,-0.004689442,0.05833714,-0.0006527699999999,-1.3246000000000611e-05,-0.0020728299999999,-0.293548,-0.4121222,1.940807
2023-10-23 14:23:04.656000000,-0.1511183,-0.1137513,-0.06607425,-0.04393746,-0.01871434,0.11679,0.04607782,-0.004870877,0.05619828,-0.00078198,-0.0001814349999999,-0.0021388599999999,-0.2929127,-0.4121144,1.941555
2023-10-23 14:23:04.670000128,-0.1511072,-0.1131689,-0.06665026,-0.05231411,-0.0288132,0.1122058,0.04524092,-0.004779451,0.05407034,-0.0008369,9.142600000000035e-05,-0.00212794,-0.292278,-0.4121519,1.942311
2023-10-23 14:23:04.684000000,-0.1509853,-0.1123424,-0.06723366,-0.05790422,-0.03927327,0.1091934,0.04427573,-0.004669271,0.05187529,-0.0009651899999999,0.0001101799999999,-0.00219505,-0.2917247,-0.4121646,1.943018
2023-10-23 14:23:04.696999936,-0.1509033,-0.1115716,-0.06770248,-0.05908662,-0.04766347,0.1052478,0.04327964,-0.004760729,0.04959092,-0.0009960899999999,-9.1458e-05,-0.00228437,-0.2911875,-0.4121994,1.943744
2023-10-23 14:23:04.711000064,-0.1508982,-0.1107663,-0.06821991,-0.05750147,-0.05404162,0.1033059,0.04195092,-0.004957408,0.0474145,-0.0013287199999999,-0.0001966789999999,-0.0021764199999999,-0.2906981,-0.4122393,1.94443
2023-10-23 14:23:04.726000128,-0.1507989,-0.1100273,-0.06880999,-0.06012076,-0.05811448,0.1071799,0.04047269,-0.00512472,0.04524844,-0.00147823,-0.000167312,-0.0021660599999999,-0.2901516,-0.4122565,1.945072
2023-10-23 14:23:04.739000064,-0.1507519,-0.1092411,-0.06937353,-0.05872221,-0.06035116,0.1086929,0.03904816,-0.005178674,0.04311509,-0.00142453,-5.395400000000016e-05,-0.0021333499999999,-0.2896464,-0.4122871,1.945672
2023-10-23 14:23:04.752999936,-0.1507579,-0.1083985,-0.06998982,-0.0560337,-0.06535684,0.1093128,0.0375946,-0.005131632,0.04104991,-0.0014535599999999,4.704200000000061e-05,-0.00206518,-0.2891171,-0.4122798,1.946224
2023-10-23 14:23:04.767000064,-0.1506695,-0.1077287,-0.07031941,-0.05441061,-0.06165614,0.1075729,0.03646056,-0.004908858,0.03914031,-0.0011340399999999,0.0002227739999999,-0.0019096,-0.2885303,-0.4121886,1.9467
2023-10-23 14:23:04.780000000,-0.1505013,-0.1068963,-0.07082245,-0.05408084,-0.06580647,0.09920058,0.03476087,-0.004717015,0.03692652,-0.00169969,0.000191843,-0.00221379,-0.2880095,-0.4121293,1.947162
2023-10-23 14:23:04.795000064,-0.1505619,-0.1061141,-0.07105821,-0.05659526,-0.06578778,0.09060533,0.03293033,-0.00462908,0.03478468,-0.0018305399999999,8.793499999999992e-05,-0.0021418399999999,-0.287626,-0.4122166,1.947613
2023-10-23 14:23:04.808000000,-0.1503814,-0.105461,-0.07128567,-0.05518083,-0.06542064,0.08369359,0.0309215,-0.004669298,0.03257812,-0.0020088299999999,-4.021799999999985e-05,-0.0022065599999999,-0.2872518,-0.4122198,1.948062
2023-10-23 14:23:04.822000128,-0.1502267,-0.104807,-0.07148784,-0.0521582,-0.06862352,0.07260329,0.02870027,-0.004584823,0.03032068,-0.00222123,8.447499999999965e-05,-0.00225744,-0.2869354,-0.4122589,1.948518
2023-10-23 14:23:04.836000000,-0.1501926,-0.1042415,-0.07166317,-0.04766597,-0.06806492,0.0597409,0.0264032,-0.005102229,0.02852575,-0.0022970699999999,-0.0005174059999999,-0.00179493,-0.2866961,-0.4123776,1.94898
2023-10-23 14:23:04.848999936,-0.1499511,-0.1037067,-0.07186737,-0.05027739,-0.06346947,0.05691324,0.02424444,-0.005687648,0.02647411,-0.00215876,-0.000585419,-0.00205164,-0.2864531,-0.4124299,1.949422
2023-10-23 14:23:04.864000000,-0.1497837,-0.1030922,-0.07224695,-0.05563065,-0.05925529,0.05917345,0.02237788,-0.005428119,0.02471618,-0.0018665599999999,0.0002595289999999,-0.0017579299999999,-0.2861939,-0.4124608,1.949763
2023-10-23 14:23:04.877000192,-0.1495558,-0.102441,-0.07268134,-0.06489551,-0.05268549,0.06745324,0.02061078,-0.004959826,0.0226987,-0.0017671,0.000468293,-0.00201748,-0.2859606,-0.4124963,1.950055
2023-10-23 14:23:04.892000000,-0.1492328,-0.102005,-0.07283187,-0.0627211,-0.04742224,0.05803362,0.01935104,-0.005226267,0.02064335,-0.0012597399999999,-0.000266441,-0.0020553499999999,-0.2856562,-0.4125207,1.950299
2023-10-23 14:23:04.904999936,-0.1488192,-0.1015355,-0.07299303,-0.06530632,-0.04544916,0.0426428,0.01776128,-0.005450435,0.01827922,-0.0015897599999999,-0.000224168,-0.00236413,-0.2853732,-0.4125301,1.950484
2023-10-23 14:23:04.918999808,-0.1484401,-0.1012729,-0.07295823,-0.06730714,-0.03958013,0.02501043,0.01603214,-0.005433038,0.0158414,-0.00172914,1.7396999999999725e-05,-0.00243782,-0.2851268,-0.412587,1.950654
2023-10-23 14:23:04.933000192,-0.148128,-0.1009146,-0.07314464,-0.06142535,-0.0329641,0.01571128,0.01451902,-0.005943239,0.01369459,-0.0015131199999999,-0.000510201,-0.0021468099999999,-0.284972,-0.4126765,1.950823
2023-10-23 14:23:04.948000000,-0.1478089,-0.1007568,-0.07307428,-0.06618889,-0.02901489,0.01222087,0.0128986,-0.006137819,0.01158123,-0.00162042,-0.0001945799999999,-0.00211336,-0.2847584,-0.412756,1.951016
2023-10-23 14:23:04.960999936,-0.1476843,-0.1006054,-0.07312174,-0.05226739,-0.0213281,0.01356865,0.01153334,-0.006363405,0.009991211,-0.00136526,-0.0002255859999999,-0.0015900189999999,-0.2846831,-0.4128302,1.951179
2023-10-23 14:23:04.974999808,-0.1474767,-0.1005351,-0.07343967,-0.04411284,-0.01496211,0.01149697,0.01019768,-0.005400878,0.00864289,-0.0013356599999999,0.000962527,-0.0013483209999999,-0.2846235,-0.4128446,1.951321
2023-10-23 14:23:04.989000192,-0.1474451,-0.1004348,-0.07349871,-0.03490265,-0.008347248,0.01228534,0.009047423,-0.004382563,0.007507009,-0.001150257,0.0010183149999999,-0.001135881,-0.2845501,-0.4128724,1.951427
2023-10-23 14:23:05.002000128,-0.1474343,-0.1004317,-0.0735057,-0.02325515,-0.003688713,0.01235663,0.008259634,-0.004021512,0.00643866,-0.000787789,0.000361051,-0.001068349,-0.284454,-0.4129198,1.951492
2023-10-23 14:23:05.016000000,-0.1472697,-0.1003593,-0.07376837,-0.01923786,0.0002941309,0.01530979,0.007481503,-0.003849523,0.005369543,-0.000778131,0.0001719889999999,-0.0010691169999999,-0.2843578,-0.4129416,1.95154
2023-10-23 14:23:05.029999872,-0.1470837,-0.1003543,-0.07389827,-0.02443678,0.004611249,0.01277303,0.006922155,-0.003487505,0.004132106,-0.0005593479999999,0.000362018,-0.001237437,-0.2842073,-0.4129108,1.951531
2023-10-23 14:23:05.044000000,-0.1469641,-0.1002292,-0.07412501,-0.0251334,0.003919627,0.01391357,0.006343481,-0.003666329,0.003087811,-0.000578674,-0.0001788239999999,-0.0010442949999999,-0.2840689,-0.412894,1.951521
2023-10-23 14:23:05.058000128,-0.1467582,-0.1003055,-0.07419846,-0.03210947,0.009014028,0.01276614,0.006057163,-0.003469799,0.002300657,-0.0002863179999999,0.0001965299999999,-0.000787154,-0.2839749,-0.41292,1.951524
2023-10-23 14:23:05.072000000,-0.1464939,-0.1001666,-0.07441509,-0.02737746,0.00643093,0.01208706,0.0055555,-0.003507131,0.001639313,-0.000501663,-3.733200000000016e-05,-0.0006613439999999,-0.2839082,-0.4129529,1.951539
2023-10-23 14:23:05.085999872,-0.1464762,-0.1001895,-0.07463548,-0.0294814,0.01158915,0.0180121,0.005231293,-0.003316937,0.001162245,-0.0003242069999999,0.000190194,-0.000477068,-0.2838621,-0.4129789,1.95156
2023-10-23 14:23:05.099000064,-0.1462416,-0.09993883,-0.07504393,-0.03292813,0.01025349,0.02911779,0.004540501,-0.003298329,0.0006746566,-0.000690792,1.860799999999982e-05,-0.0004875883999999,-0.2838965,-0.4129866,1.951642
2023-10-23 14:23:05.112999936,-0.1461657,-0.09981249,-0.07516845,-0.03017843,0.004229609,0.03108526,0.004058281,-0.003290738,0.0001133824,-0.0004822199999999,7.590999999999935e-06,-0.0005612742,-0.2839308,-0.413014,1.951705
2023-10-23 14:23:05.127000064,-0.1460219,-0.09970377,-0.07526392,-0.02612182,-0.0008274391,0.02843796,0.003711396,-0.003549013,-0.0005839186,-0.000346885,-0.000258275,-0.000697301,-0.2838978,-0.413059,1.951697
2023-10-23 14:23:05.140999936,-0.1459322,-0.09946223,-0.07555635,-0.02842008,-0.003786952,0.02715243,0.003347812,-0.004014077,-0.00126482,-0.000363584,-0.0004650639999999,-0.0006809014,-0.2838601,-0.4131027,1.951677
2023-10-23 14:23:05.156000000,-0.145665,-0.09917105,-0.07568996,-0.03844287,-0.007845516,0.02641601,0.003126278,-0.004495459,-0.002034577,-0.0002215339999999,-0.000481382,-0.000769757,-0.2837862,-0.4131379,1.951629
2023-10-23 14:23:05.168999936,-0.1454282,-0.09898677,-0.07584569,-0.04226401,-0.01265795,0.02503274,0.003142318,-0.005437762,-0.002875705,1.6039999999999718e-05,-0.0009423029999999,-0.000841128,-0.283669,-0.4131741,1.95154
2023-10-23 14:23:05.183000064,-0.1450976,-0.09866874,-0.07613248,-0.05111082,-0.01412142,0.02765853,0.003100669,-0.006269494,-0.003648008,-4.164899999999994e-05,-0.000831732,-0.0007723029999999,-0.2835619,-0.4132131,1.951454
2023-10-23 14:23:05.196999936,-0.144691,-0.09827034,-0.07623652,-0.05901144,-0.02113094,0.02638811,0.002603617,-0.006970839,-0.004460748,-0.000497052,-0.000701345,-0.0008127399999999,-0.2835415,-0.4133123,1.9514
2023-10-23 14:23:05.211000064,-0.1443073,-0.09783898,-0.07653099,-0.06281065,-0.02228677,0.02631836,0.002387032,-0.007523798,-0.005144844,-0.000216585,-0.0005529589999999,-0.000684096,-0.2835153,-0.4134024,1.951339
2023-10-23 14:23:05.224999936,-0.1439559,-0.09753945,-0.0766,-0.0655372,-0.0249715,0.02596474,0.001903491,-0.007865254,-0.005925911,-0.0004835409999999,-0.000341456,-0.0007810669999999,-0.2835246,-0.4135041,1.951279
2023-10-23 14:23:05.237999872,-0.1435888,-0.09706646,-0.07689041,-0.07004189,-0.02682476,0.02703699,0.001211245,-0.007936031,-0.006669171,-0.000692246,-7.07769999999993e-05,-0.0007432599999999,-0.2835608,-0.4135844,1.951228
2023-10-23 14:23:05.252000000,-0.1433319,-0.09672419,-0.07711667,-0.07103626,-0.02851943,0.02837339,0.0004619558,-0.007798764,-0.007378752,-0.0007492891999999,0.0001372669999999,-0.0007095809999999,-0.283598,-0.4136668,1.951153
2023-10-23 14:23:05.266000128,-0.1429804,-0.09640589,-0.07734615,-0.07074372,-0.02581173,0.03130521,-4.671677e-05,-0.007208037,-0.008055285,-0.00050867257,0.000590727,-0.000676533,-0.2836106,-0.4137335,1.951046
2023-10-23 14:23:05.280000000,-0.1425962,-0.09591086,-0.07749919,-0.06994575,-0.02663326,0.03435609,-0.0007470211,-0.006239231,-0.008627389,-0.00070030433,0.000968806,-0.0005721039999999,-0.2836408,-0.4137816,1.950945
2023-10-23 14:23:05.293999872,-0.142303,-0.09578522,-0.07779042,-0.06299812,-0.02311454,0.03384302,-0.001111769,-0.005134684,-0.009171056,-0.0003647479,0.001104547,-0.000543667,-0.2836234,-0.413753,1.950773
2023-10-23 14:23:05.308000000,-0.1421148,-0.09537632,-0.07812008,-0.06111911,-0.02345096,0.03480408,-0.001768736,-0.003660115,-0.009683663,-0.0006569669999999,0.0014745689999999,-0.000512607,-0.2836234,-0.4136882,1.950607
2023-10-23 14:23:05.322000128,-0.1418722,-0.09500524,-0.0782693,-0.05682832,-0.02581136,0.03496768,-0.002438486,-0.002380554,-0.01010729,-0.00066975,0.0012795609999999,-0.0004236269999999,-0.2836601,-0.4136565,1.950464
2023-10-23 14:23:05.335000064,-0.1417256,-0.09458283,-0.07853458,-0.05236286,-0.0258392,0.03572043,-0.003036187,-0.001044579,-0.01026891,-0.000597701,0.001335975,-0.0001616199999999,-0.2837173,-0.4136197,1.950343
2023-10-23 14:23:05.348999936,-0.1417211,-0.09421947,-0.07865458,-0.04600914,-0.02627039,0.03738951,-0.003614785,0.0001847164,-0.01031554,-0.000578598,0.0012292954,-4.663000000000063e-05,-0.2837988,-0.4135785,1.950231
2023-10-23 14:23:05.362999808,-0.1415937,-0.0938918,-0.07887156,-0.04031717,-0.03066939,0.04113393,-0.004458652,0.001224315,-0.01027032,-0.0008438669999999,0.0010395985999999,4.522000000000033e-05,-0.2839667,-0.4135205,1.950168
2023-10-23 14:23:05.377000192,-0.1415323,-0.09352089,-0.07902028,-0.035237,-0.03360403,0.03936659,-0.004981578,0.001851323,-0.009944868,-0.000522926,0.000627008,0.0003254519999999,-0.2841273,-0.4134672,1.950116
2023-10-23 14:23:05.391000064,-0.1413983,-0.09310693,-0.07920231,-0.03348398,-0.03437599,0.03793524,-0.005253935,0.002337109,-0.00961241,-0.000272357,0.000485786,0.000332458,-0.2842232,-0.4134073,1.950026
2023-10-23 14:23:05.404999936,-0.1414259,-0.09275897,-0.07930255,-0.03035277,-0.0388377,0.03700426,-0.005662843,0.002511612,-0.009300297,-0.0004089079999999,0.0001745029999999,0.0003121129999999,-0.2843151,-0.4133595,1.949924
2023-10-23 14:23:05.418999808,-0.1413476,-0.09213493,-0.07964975,-0.03095602,-0.04111331,0.04225493,-0.006134115,0.002314032,-0.008810685,-0.000471272,-0.0001975799999999,0.000489612,-0.2844031,-0.4132976,1.949847
2023-10-23 14:23:05.432000000,-0.1413467,-0.09175119,-0.07951246,-0.02897383,-0.04447776,0.03928997,-0.006499301,0.002045135,-0.008192595,-0.000365186,-0.000268897,0.00061809,-0.2844766,-0.4132629,1.949764
2023-10-23 14:23:05.446000128,-0.1412556,-0.09140556,-0.07960039,-0.02748049,-0.04433002,0.03626164,-0.006812877,0.001693401,-0.007308003,-0.000313576,-0.000351734,0.000884592,-0.2845522,-0.4132219,1.949695
2023-10-23 14:23:05.460000000,-0.1411949,-0.09103949,-0.07974677,-0.02725004,-0.04497061,0.03296217,-0.007204854,0.001597372,-0.006346799,-0.0003919769999999,-9.602900000000008e-05,0.000961204,-0.284663,-0.4131869,1.94965
2023-10-23 14:23:05.473999872,-0.1412393,-0.09056097,-0.0798809,-0.02823476,-0.04668041,0.03429949,-0.007807452,0.0009075865,-0.005418117,-0.000602598,-0.0006897854999999,0.000928682,-0.2847901,-0.4131775,1.949625
2023-10-23 14:23:05.488000000,-0.1410783,-0.09004708,-0.07985137,-0.02720171,-0.04791147,0.02908998,-0.008258791,7.35901e-05,-0.004238946,-0.0004513389999999,-0.0008339964,0.0011791709999999,-0.2849455,-0.4131891,1.949648
2023-10-23 14:23:05.502000128,-0.1409984,-0.08993966,-0.07978363,-0.02747704,-0.04446702,0.01600799,-0.008644059,-0.0005936185,-0.002634941,-0.000385268,-0.0006672086,0.001604005,-0.2851347,-0.4132141,1.949712
2023-10-23 14:23:05.516000000,-0.1408719,-0.08950254,-0.07985733,-0.03017437,-0.04025683,0.0160759,-0.009302834,-0.001390999,-0.001235855,-0.0006587749999999,-0.0007973804999999,0.001399086,-0.2853358,-0.4132421,1.949803
2023-10-23 14:23:05.528999936,-0.140614,-0.0892327,-0.08021259,-0.03623333,-0.03284726,0.02218637,-0.009781025,-0.001923488,1.979561e-05,-0.000478191,-0.000532489,0.0012556506099999,-0.2854816,-0.4132554,1.949848
2023-10-23 14:23:05.543000064,-0.1401121,-0.08899886,-0.0805095,-0.04945916,-0.02309184,0.02948406,-0.01010911,-0.002097684,0.001044521,-0.0003280849999999,-0.0001741959999999,0.00102472539,-0.2856281,-0.4132642,1.949904
2023-10-23 14:23:05.556999936,-0.1396949,-0.08871832,-0.08050737,-0.05833694,-0.01867914,0.01988455,-0.01026248,-0.002197881,0.001867075,-0.0001533699999999,-0.000100197,0.0008225539999999,-0.2857678,-0.4132832,1.949956
2023-10-23 14:23:05.571000064,-0.1391973,-0.08860426,-0.08040842,-0.06327148,-0.01863307,0.004779649,-0.01061821,-0.003034142,0.002148198,-0.00035573,-0.000836261,0.000281123,-0.285912,-0.4133329,1.949983
2023-10-23 14:23:05.585999872,-0.1385684,-0.08824137,-0.08032957,-0.07383906,-0.01757402,-0.008017063,-0.0110082,-0.004332234,0.002130852,-0.0003899899999999,-0.0012980919999999,-1.7346000000000115e-05,-0.2860689,-0.4134092,1.950024
2023-10-23 14:23:05.599000064,-0.1378889,-0.08812812,-0.0801219,-0.08175314,-0.0174887,-0.02190216,-0.01142112,-0.005321829,0.002152947,-0.00041292,-0.000989595,2.2095000000000187e-05,-0.2862412,-0.4135127,1.950069
2023-10-23 14:23:05.612999936,-0.137242,-0.08793222,-0.07998504,-0.08367352,-0.0199385,-0.02672682,-0.01160622,-0.005579372,0.002300322,-0.0001851,-0.0002575429999999,0.0001473749999999,-0.2864117,-0.4135997,1.950122
2023-10-23 14:23:05.627000064,-0.1370319,-0.08766358,-0.07983488,-0.0749763,-0.02246472,-0.02607733,-0.01196738,-0.005125802,0.002782831,-0.0003611599999999,0.00045357,0.0004825089999999,-0.2866472,-0.4136681,1.950254
2023-10-23 14:23:05.640000000,-0.13678,-0.08771016,-0.07963472,-0.05711892,-0.01971885,-0.02457142,-0.01214084,-0.004252582,0.003465202,-0.00017346,0.0008732199999999,0.000682371,-0.2868768,-0.4137181,1.95038
2023-10-23 14:23:05.655000064,-0.1367754,-0.0874463,-0.07965624,-0.04479346,-0.02051419,-0.02062158,-0.01242062,-0.003113131,0.003984589,-0.00027978,0.001139451,0.000519387,-0.2870818,-0.4137297,1.950489
2023-10-23 14:23:05.668999936,-0.1365549,-0.08750466,-0.07944288,-0.03143753,-0.01959887,-0.01801846,-0.01240776,-0.002750592,0.004364394,1.2859999999999956e-05,0.0003625389999999,0.0003798049999999,-0.2872555,-0.4137708,1.950558
2023-10-23 14:23:05.681999872,-0.1363759,-0.08736762,-0.07944535,-0.02835526,-0.01597457,-0.01779119,-0.01231996,-0.002570458,0.004578818,8.780000000000072e-05,0.000180134,0.000214424,-0.2874243,-0.4137965,1.950634
2023-10-23 14:23:05.696000000,-0.1359379,-0.08723521,-0.07944651,-0.03325499,-0.01146301,-0.01266684,-0.01234371,-0.002813604,0.004438855,-2.37500000000012e-05,-0.000243146,-0.0001399629999999,-0.2875729,-0.4138259,1.950673
2023-10-23 14:23:05.710000128,-0.1357422,-0.08722512,-0.07924746,-0.03777488,-0.008132225,-0.014164,-0.01207644,-0.003514272,0.004363485,0.00026727,-0.000700668,-7.536999999999995e-05,-0.2877128,-0.413892,1.950706
2023-10-23 14:23:05.724000000,-0.1353078,-0.0870415,-0.07906124,-0.04093101,-0.009366059,-0.02096675,-0.01184674,-0.003872662,0.004291176,0.0002297,-0.0003583899999999,-7.230900000000044e-05,-0.287869,-0.4139575,1.95077
2023-10-23 14:23:05.737999872,-0.1350239,-0.08708957,-0.07896061,-0.0409275,-0.01022242,-0.0266669,-0.01165281,-0.003383277,0.004583424,0.00019393,0.0004893849999999,0.000292248,-0.2880267,-0.4139972,1.950839
2023-10-23 14:23:05.752999936,-0.1347836,-0.08688195,-0.0791318,-0.04187664,-0.00826155,-0.01571668,-0.01186406,-0.003368907,0.004835336,-0.0002112499999999,1.4370000000000096e-05,0.0002519119999999,-0.2882066,-0.4140307,1.95094
2023-10-23 14:23:05.765000192,-0.1344472,-0.08681594,-0.07905863,-0.04433604,-0.007040278,-0.01228014,-0.01194466,-0.003264455,0.005065789,-8.060000000000012e-05,0.000104452,0.000230453,-0.2884067,-0.4140785,1.951065
2023-10-23 14:23:05.779000064,-0.1341216,-0.08665928,-0.07919344,-0.04452474,-0.006455957,-0.008956478,-0.01189146,-0.003299753,0.005210707,5.3199999999999775e-05,-3.5298000000000013e-05,0.0001449179999999,-0.2886035,-0.4141135,1.951198
2023-10-23 14:23:05.792999936,-0.1338236,-0.08665009,-0.0790907,-0.04507404,-0.004517903,-0.01204477,-0.0118572,-0.003163489,0.005265862,3.42599999999995e-05,0.000136264,5.515499999999944e-05,-0.2887709,-0.4141576,1.95128
2023-10-23 14:23:05.806999808,-0.1335168,-0.08661097,-0.07894063,-0.04343267,-0.001999307,-0.01441461,-0.01201739,-0.003221247,0.005175078,-0.0001601899999999,-5.77580000000002e-05,-9.0784e-05,-0.2889444,-0.4142095,1.951356
2023-10-23 14:23:05.821000192,-0.1332225,-0.08656926,-0.07887703,-0.04441153,-0.004593154,-0.01884479,-0.01218567,-0.003116285,0.005019669,-0.0001682799999999,0.000104962,-0.0001554089999999,-0.2890942,-0.4142462,1.951414
2023-10-23 14:23:05.835000064,-0.1328377,-0.08650921,-0.07888108,-0.0477231,-0.002418376,-0.01833567,-0.01205822,-0.002887644,0.004748912,0.0001274499999999,0.0002286409999999,-0.0002707569999999,-0.2891971,-0.4142646,1.951447
2023-10-23 14:23:05.848999936,-0.1324846,-0.08648898,-0.07877824,-0.0436962,0.0009813285,-0.01762987,-0.01189475,-0.002933172,0.00449738,0.0001634699999999,-4.5527999999999975e-05,-0.000251532,-0.2893052,-0.4142989,1.951478
2023-10-23 14:23:05.861999872,-0.1323688,-0.08661213,-0.07877552,-0.03881207,0.003427613,-0.01401178,-0.01209159,-0.002897183,0.004252614,-0.0001968399999999,3.598900000000016e-05,-0.0002447659999999,-0.2894768,-0.4143392,1.951523
2023-10-23 14:23:05.877000192,-0.1321903,-0.0866146,-0.07867555,-0.03253469,0.003361099,-0.01742806,-0.01223564,-0.002338931,0.004079342,-0.00014405,0.000558252,-0.000173272,-0.2896515,-0.4143647,1.951578
2023-10-23 14:23:05.892000000,-0.1322299,-0.08661432,-0.07869525,-0.01980325,0.0003071008,-0.01286072,-0.01280738,-0.001918437,0.003957409,-0.0005717399999999,0.0004204939999999,-0.0001219329999999,-0.2898699,-0.4143924,1.951676
2023-10-23 14:23:05.904999936,-0.1320892,-0.08665618,-0.07869367,-0.01396299,0.004544294,-0.01047022,-0.0129484,-0.001207828,0.004199605,-0.00014102,0.000710609,0.000242196,-0.2900859,-0.4144054,1.951797
2023-10-23 14:23:05.932000000,-0.1322202,-0.08683097,-0.07868925,0.00110151,0.007599469,-0.00535544,-0.01327135,-0.000681783,0.004605412,-0.0003229499999999,0.0005260449999999,0.0004058069999999,-0.2904873,-0.4144284,1.951968
2023-10-23 14:24:43.374000128,-0.1469738,-0.1002316,-0.07402521,-0.02868776,0.009089508,0.0179578,0.006451697,-0.00368744,0.00306867,0.019723047,-0.003005657,-0.0015367419999999,-0.2840582,-0.4128935,1.951516
2023-10-23 14:24:43.432000000,0.1555431,-0.5242776,0.1352793,-0.8158849,1.572325,-0.04529504,-0.1639191,0.006591938,0.03310331,-0.170370797,0.010279378,0.0300346399999999,-0.3536115,-0.04047558,-0.4352093
2023-10-23 14:24:43.447000064,0.1532887,-0.5445328,0.1336593,-0.9409527,1.451339,0.01955818,-0.1549947,0.02903725,0.03944283,0.0089243999999999,0.022445312,0.00633952,-0.3564495,-0.03915492,-0.4345335
2023-10-23 14:24:43.456999936,0.1515283,-0.5542573,0.1322972,-0.9774768,1.39815,0.03753646,-0.1513541,0.0382977,0.04446947,0.0036406,0.0092604499999999,0.0050266399999999,-0.3577502,-0.03826484,-0.4339958
2023-10-23 14:24:43.470000128,0.1492632,-0.5633972,0.1305802,-1.00687,1.326122,0.06442069,-0.1450387,0.04939797,0.05199357,0.0063153999999999,0.01110027,0.0075241,-0.3589382,-0.03730565,-0.4333452
2023-10-23 14:24:43.483000064,0.1470383,-0.5720666,0.1286349,-1.012897,1.25931,0.07494792,-0.1376269,0.058212,0.06001008,0.0074117999999999,0.00881403,0.0080165099999999,-0.3600204,-0.03628159,-0.4325091
2023-10-23 14:24:43.496999936,0.1447983,-0.5802522,0.1268504,-0.9956885,1.191103,0.08145507,-0.1284139,0.06470571,0.06903241,0.0092129999999999,0.00649371,0.00902233,-0.3609973,-0.03517953,-0.4314514
2023-10-23 14:24:43.509999872,0.1427001,-0.5876614,0.1251686,-0.9585788,1.119606,0.07398454,-0.1186326,0.06804862,0.07890177,0.0097812999999999,0.00334291,0.0098693599999999,-0.3619091,-0.03408606,-0.430239
2023-10-23 14:24:43.528000000,0.1408315,-0.594268,0.1235392,-0.897345,1.038149,0.06586425,-0.108548,0.06877348,0.08884043,0.0100845999999999,0.0007248599999999,0.00993866,-0.3627001,-0.03310224,-0.4288447
2023-10-23 14:24:43.536999936,0.1390014,-0.6002617,0.1223383,-0.8253658,0.955296,0.0612283,-0.09818312,0.06694224,0.09937086,0.01036488,-0.0018312399999999,0.01053043,-0.3634436,-0.03218561,-0.427292
2023-10-23 14:24:43.552000000,0.1368074,-0.6057865,0.1212729,-0.7554261,0.885107,0.07351979,-0.08911842,0.06333828,0.1089653,0.0090646999999999,-0.00360396,0.0095944399999999,-0.364095,-0.03141397,-0.4256523
2023-10-23 14:24:43.564999936,0.1347915,-0.6108723,0.1203438,-0.6953524,0.8295048,0.08539455,-0.08177756,0.05933932,0.1167603,0.00734086,-0.0039989599999999,0.0077949999999999,-0.3646219,-0.03066001,-0.4239549
2023-10-23 14:24:43.578000128,0.132665,-0.6156738,0.1191461,-0.6540042,0.7670028,0.09197236,-0.0757056,0.05416211,0.1237531,0.00607196,-0.00517721,0.0069928,-0.365137,-0.0300418,-0.4221255
2023-10-23 14:24:43.592000000,0.1307253,-0.6198727,0.117763,-0.6257634,0.6923955,0.08462572,-0.07115266,0.04802923,0.1294582,0.0045529399999999,-0.00613288,0.0057050999999999,-0.3656367,-0.02949556,-0.4202591
2023-10-23 14:24:43.605999872,0.1291038,-0.6234974,0.1158517,-0.6058377,0.6068079,0.06207923,-0.06776244,0.04091275,0.1337514,0.00339022,-0.00711648,0.0042931999999999,-0.36619,-0.02904451,-0.4183471
2023-10-23 14:24:43.620999936,0.1269698,-0.6269233,0.1140551,-0.5913636,0.5338074,0.057456,-0.06491169,0.0332482,0.1367,0.0028507499999999,-0.0076645499999999,0.0029485999999999,-0.3666554,-0.02874885,-0.4164446
2023-10-23 14:24:43.636000000,0.1251542,-0.6303001,0.1125147,-0.5685474,0.4806913,0.05526232,-0.06190231,0.02581093,0.1376456,0.0030093799999999,-0.0074372699999999,0.0009456,-0.3670816,-0.02850279,-0.4145551
2023-10-23 14:24:43.644999936,0.1235268,-0.6334517,0.1110898,-0.5411269,0.4510261,0.05165917,-0.05888001,0.01904149,0.1361973,0.0030222999999999,-0.0067694399999999,-0.0014483,-0.3675003,-0.02835047,-0.4127805
2023-10-23 14:24:43.658999808,0.1226751,-0.6362377,0.1095077,-0.5045795,0.418517,0.02037238,-0.05606461,0.01369464,0.1327955,0.0028154,-0.00534685,-0.0034017999999999,-0.3679211,-0.02814818,-0.4110649
2023-10-23 14:24:43.673000192,0.1221793,-0.6386771,0.1079699,-0.4574254,0.3825146,-0.02048504,-0.05374435,0.01010898,0.1280679,0.0023202599999999,-0.0035856599999999,-0.0047275999999999,-0.3683711,-0.02792839,-0.4094039
2023-10-23 14:24:43.686000128,0.1220478,-0.6407883,0.1065881,-0.4084098,0.3500624,-0.05544725,-0.05255744,0.009021903,0.123965,0.00118691,-0.001087077,-0.0041029,-0.3689056,-0.02766548,-0.4077876
2023-10-23 14:24:43.700999936,0.1220821,-0.6425581,0.1051096,-0.3558162,0.3062459,-0.09526615,-0.05177611,0.01020401,0.1196948,0.0007813299999999,0.001182107,-0.0042702,-0.3694907,-0.0273142,-0.4062417
2023-10-23 14:24:43.714999808,0.1220619,-0.6441349,0.1037612,-0.313953,0.2651308,-0.1157273,-0.05207465,0.01386057,0.1163389,-0.0002985399999999,0.0036565599999999,-0.0033559,-0.3701118,-0.02686275,-0.4046813
2023-10-23 14:24:43.729000192,0.1219797,-0.645593,0.1025623,-0.280669,0.2306458,-0.1192272,-0.05283239,0.02138425,0.1140652,-0.0007577399999999,0.00752368,-0.0022736999999999,-0.3706132,-0.02620921,-0.4029947
2023-10-23 14:24:43.742000128,0.1214374,-0.6469386,0.1015044,-0.2646666,0.201866,-0.09666003,-0.05382361,0.03026905,0.1120798,-0.00099122,0.0088847999999999,-0.0019854,-0.3711498,-0.02551576,-0.4013455
2023-10-23 14:24:43.756000000,0.12072,-0.6479884,0.1004168,-0.2497723,0.1667738,-0.07174698,-0.05418424,0.03885547,0.110145,-0.00036063,0.00858642,-0.0019347999999999,-0.3717154,-0.02482427,-0.3998294
2023-10-23 14:24:43.770999808,0.1204307,-0.6484929,0.09963846,-0.2222375,0.1286967,-0.05196236,-0.05215551,0.04445861,0.109321,0.0020287299999999,0.0056031399999999,-0.000824,-0.3722838,-0.0240957,-0.3983255
2023-10-23 14:24:43.785000192,0.1198598,-0.6487104,0.09910139,-0.1828221,0.08157575,-0.0336473,-0.04871166,0.04767575,0.1096553,0.00344385,0.00321714,0.0003342999999999,-0.3728224,-0.02342329,-0.3967639
2023-10-23 14:24:43.799000064,0.1194094,-0.6485391,0.09857242,-0.1449642,0.02699181,-0.008243036,-0.0450395,0.04938966,0.1111029,0.0036721599999999,0.0017139099999999,0.0014476,-0.3733017,-0.02270782,-0.3949849
2023-10-23 14:24:43.812000000,0.1186341,-0.6481861,0.09798719,-0.122486,-0.02857568,0.01559314,-0.04267932,0.0502089,0.1125738,0.00236018,0.0008192399999999,0.0014708999999999,-0.3738181,-0.02197859,-0.3931927
2023-10-23 14:24:43.825999872,0.1176277,-0.647414,0.09707669,-0.1191455,-0.09230231,0.03705487,-0.04134867,0.04950044,0.1139548,0.00133065,-0.00070846,0.0013809999999999,-0.3743356,-0.02140085,-0.3913803
2023-10-23 14:24:43.840000000,0.1165639,-0.6461829,0.09594123,-0.1181659,-0.1684502,0.04942331,-0.04047409,0.04708887,0.1147787,0.0008745799999999,-0.00241157,0.0008239,-0.3748605,-0.02090757,-0.3896452
2023-10-23 14:24:43.854000128,0.1158668,-0.6446286,0.09473212,-0.1113811,-0.2450704,0.04685675,-0.03944728,0.04310349,0.1143782,0.0010268099999999,-0.0039853799999999,-0.0004004999999999,-0.3754687,-0.02042013,-0.3879611
2023-10-23 14:24:43.868000000,0.1149752,-0.6428469,0.09350262,-0.1025594,-0.3076799,0.04144014,-0.03808254,0.03796159,0.1123747,0.00136474,-0.0051418999999999,-0.0020035,-0.3760755,-0.02003806,-0.3864261
2023-10-23 14:24:43.882999808,0.1143188,-0.6408258,0.09189212,-0.1007057,-0.3675995,0.03267753,-0.03635488,0.03140378,0.1083536,0.0017276599999999,-0.00655781,-0.0040211,-0.3767009,-0.01973367,-0.3849633
2023-10-23 14:24:43.896000000,0.1137223,-0.6384646,0.09017499,-0.09647381,-0.4255438,0.01398414,-0.03406551,0.02445756,0.1035978,0.0022893699999999,-0.0069462199999999,-0.0047557999999999,-0.3772679,-0.01955806,-0.3836233
2023-10-23 14:24:43.908000000,0.113526,-0.6357173,0.0886106,-0.07486829,-0.4816938,-0.0001679752,-0.03017171,0.01715089,0.09824172,0.0038937999999999,-0.00730667,-0.0053560799999999,-0.3777694,-0.01952523,-0.3823405
2023-10-23 14:24:43.923000064,0.1137124,-0.6326821,0.08760349,-0.0299603,-0.5241786,-0.02268564,-0.02411299,0.00839919,0.09279772,0.00605872,-0.0087516999999999,-0.005444,-0.3780632,-0.01970453,-0.3811215
2023-10-23 14:24:43.936999936,0.1142383,-0.6293951,0.08671278,0.02896822,-0.5572289,-0.04514733,-0.01628799,-0.0008091922,0.08562877,0.007825,-0.0092083822,-0.0071689499999999,-0.3781916,-0.02006227,-0.3799905
2023-10-23 14:24:43.951000064,0.1153021,-0.6258291,0.08591914,0.08883826,-0.5849644,-0.07771465,-0.007340247,-0.00986065,0.07661765,0.0089477429999999,-0.0090514578,-0.00901112,-0.3782375,-0.02042608,-0.3790289
2023-10-23 14:24:43.964999936,0.1167346,-0.6218454,0.08508839,0.1468989,-0.6221399,-0.1197801,0.001095976,-0.0153322,0.06639589,0.008436223,-0.00547155,-0.0102217599999999,-0.3784103,-0.02058889,-0.3782788
2023-10-23 14:24:43.979000064,0.1177895,-0.6175184,0.08409901,0.176131,-0.6744009,-0.1425582,0.007266402,-0.01555058,0.05694866,0.006170426,-0.0002183799999999,-0.00944723,-0.3785967,-0.02054467,-0.3776006
2023-10-23 14:24:43.992999936,0.1178514,-0.6128191,0.08256343,0.1704292,-0.7417009,-0.128694,0.01049634,-0.009579769,0.04871126,0.003229938,0.0059708109999999,-0.0082373999999999,-0.3788703,-0.02036956,-0.376871
2023-10-23 14:24:44.007000064,0.1167975,-0.6082336,0.08116736,0.1317333,-0.8092739,-0.06604613,0.0111606,-0.0007150122,0.04190237,0.0006642599999999,0.0088647568,-0.0068088899999999,-0.3791676,-0.02006154,-0.376165
2023-10-23 14:24:44.022000128,0.1151979,-0.6032468,0.07973239,0.09279309,-0.8682113,0.01694917,0.01066998,0.01067533,0.03603495,-0.0004906199999999,0.0113903422,-0.0058674199999999,-0.3794589,-0.01964047,-0.3756421
2023-10-23 14:24:44.035000064,0.1132988,-0.5978,0.07806829,0.06615008,-0.9370271,0.08196285,0.01086461,0.02083232,0.03112953,0.0001946299999999,0.01015699,-0.00490542,-0.379674,-0.01922305,-0.3751826
2023-10-23 14:24:44.048999936,0.111823,-0.5915551,0.07602076,0.05281557,-1.031243,0.1124671,0.0132647,0.02934244,0.02749168,0.00240009,0.00851012,-0.0036378499999999,-0.3798663,-0.01868884,-0.3746186
2023-10-23 14:24:44.063000064,0.1099242,-0.5844247,0.07405423,0.05504281,-1.141318,0.1425396,0.0167895,0.03681365,0.02594319,0.0035247999999999,0.00747121,-0.0015484899999999,-0.379959,-0.01822734,-0.3739032
2023-10-23 14:24:44.076999936,0.1075877,-0.5769286,0.07233839,0.06953126,-1.236647,0.1849075,0.02025867,0.04312286,0.02657218,0.00346917,0.0063092099999999,0.0006289899999999,-0.3800294,-0.01772549,-0.3731275
2023-10-23 14:24:44.091000064,0.1052812,-0.5686271,0.07055137,0.09868786,-1.341143,0.2212761,0.02355886,0.05019619,0.028085,0.00330019,0.00707333,0.0015128199999999,-0.380242,-0.01695045,-0.372374
2023-10-23 14:24:44.104999936,0.1026012,-0.5591409,0.06834539,0.1194514,-1.474401,0.2513518,0.02590202,0.05833681,0.03233973,0.00234316,0.00814062,0.0042547299999999,-0.3805493,-0.01598882,-0.3714227
2023-10-23 14:24:44.119000064,0.0990812,-0.548293,0.06597185,0.1326414,-1.649821,0.3028908,0.02828039,0.06737515,0.04118318,0.0023783699999999,0.0090383399999999,0.00884345,-0.3808492,-0.01491496,-0.3701515
2023-10-23 14:24:44.132999936,0.09478681,-0.5361864,0.06401313,0.1690459,-1.831974,0.3958497,0.0312331,0.07650515,0.05323647,0.00295271,0.00913,0.01205329,-0.3811552,-0.01384478,-0.3686957
2023-10-23 14:24:44.147000064,0.09024747,-0.5240197,0.06239384,0.2156459,-1.959671,0.4821905,0.03498161,0.08218947,0.06271183,0.00374851,0.00568432,0.0094753599999999,-0.3813373,-0.01282006,-0.3672289
2023-10-23 14:24:44.160999936,0.08599543,-0.5117122,0.06097352,0.2651613,-2.032159,0.5301573,0.03856269,0.08507084,0.06735291,0.0035810799999999,0.0028813699999999,0.00464108,-0.3815645,-0.01181503,-0.3658851
2023-10-23 14:24:44.174000128,0.08204203,-0.4991924,0.05964857,0.3104631,-2.068547,0.5462471,0.04207633,0.08532633,0.06834766,0.00351364,0.00025549,0.00099475,-0.3817154,-0.01083539,-0.364547
2023-10-23 14:24:44.188999936,0.07830635,-0.4865919,0.05832384,0.3450356,-2.085642,0.5377123,0.04545025,0.08395851,0.06790487,0.0033739199999999,-0.00136782,-0.0004427899999999,-0.3817524,-0.009997712,-0.3630154
2023-10-23 14:24:44.201999872,0.07434262,-0.47392,0.05747937,0.3804406,-2.085194,0.5393598,0.04857413,0.08198581,0.06635185,0.00312388,-0.0019726999999999,-0.00155302,-0.3817297,-0.009231073,-0.3615068
2023-10-23 14:24:44.216000000,0.07040377,-0.4614982,0.05679052,0.4195293,-2.067281,0.5374833,0.05120384,0.08014792,0.06285737,0.00262971,-0.00183789,-0.00349448,-0.3816303,-0.008480633,-0.360123
2023-10-23 14:24:44.230000128,0.06679846,-0.4493054,0.05610917,0.4401271,-2.027985,0.5248848,0.05264927,0.07829779,0.05707959,0.0014454299999999,-0.0018501299999999,-0.0057777799999999,-0.3816411,-0.007560717,-0.3590443
2023-10-23 14:24:44.244000000,0.06326197,-0.4379834,0.05538794,0.4440116,-1.955674,0.5116498,0.05178442,0.07631345,0.04910648,-0.00086485,-0.00198434,-0.0079731099999999,-0.3816754,-0.006685727,-0.3581058
2023-10-23 14:24:44.257999872,0.05987877,-0.4274704,0.0545676,0.4218975,-1.859677,0.4953614,0.04844316,0.07447623,0.0398035,-0.0033412599999999,-0.00183722,-0.00930298,-0.3817265,-0.005847926,-0.3572271
2023-10-23 14:24:44.272000000,0.05693564,-0.4176046,0.05290757,0.3661415,-1.759051,0.4772449,0.04330749,0.07333599,0.02912128,-0.00513567,-0.00114024,-0.01068222,-0.3817747,-0.004941412,-0.3564316
2023-10-23 14:24:44.286000128,0.05420707,-0.4081137,0.05059956,0.2794729,-1.678567,0.4567693,0.03810835,0.07255578,0.01920651,-0.0051991399999999,-0.00078021,-0.00991477,-0.3818367,-0.004024658,-0.3558401
2023-10-23 14:24:44.300000000,0.05150586,-0.3991475,0.04844854,0.2085598,-1.592876,0.4455467,0.03382409,0.07083593,0.009905458,-0.0042842599999999,-0.0017198499999999,-0.0093010519999999,-0.3819063,-0.00311965,-0.3554933
2023-10-23 14:24:44.312999936,0.04926924,-0.3907475,0.04649798,0.1654707,-1.504251,0.4271561,0.0309087,0.0683163,0.001158048,-0.00291539,-0.00251963,-0.00874741,-0.3819439,-0.002194819,-0.3552387
2023-10-23 14:24:44.326999808,0.04694501,-0.3828033,0.04447099,0.1242256,-1.415645,0.4057306,0.02870414,0.06533619,-0.007064986,-0.00220456,-0.0029801099999999,-0.008223034,-0.3820326,-0.001497452,-0.3549833
2023-10-23 14:24:44.341000192,0.04487044,-0.375178,0.04215603,0.09051637,-1.34102,0.3904387,0.02623959,0.06421591,-0.0145952,-0.0024645499999999,-0.00112028,-0.0075302139999999,-0.3821223,-0.0007011127,-0.3548081
2023-10-23 14:24:44.356000000,0.04268945,-0.3678095,0.03973322,0.05825558,-1.277775,0.3926115,0.02434399,0.06350792,-0.0218493,-0.0018956,-0.00070799,-0.0072540999999999,-0.3821789,0.0001837955,-0.3548254
2023-10-23 14:24:44.368999936,0.04076578,-0.3605207,0.03738651,0.02795542,-1.228826,0.3871798,0.02332005,0.06242913,-0.02858957,-0.00102394,-0.0010787899999999,-0.00674027,-0.3822155,0.001075307,-0.3549891
2023-10-23 14:24:44.382999808,0.03878583,-0.3536037,0.03515606,0.01890037,-1.183622,0.3801079,0.02302713,0.05986574,-0.03450263,-0.0002929199999999,-0.0025633899999999,-0.0059130599999999,-0.3821662,0.001825075,-0.3551906
2023-10-23 14:24:44.397000192,0.03732,-0.3468884,0.03333403,0.01936172,-1.134895,0.3490414,0.02257636,0.0570383,-0.03990254,-0.0004507699999999,-0.00282744,-0.00539991,-0.3821472,0.002509885,-0.3554178
2023-10-23 14:24:44.411000064,0.03589264,-0.3404692,0.03139192,0.009072526,-1.094768,0.3242634,0.02149097,0.05414072,-0.04533371,-0.0010853899999999,-0.0028975799999999,-0.0054311699999999,-0.382133,0.003187905,-0.3556717
2023-10-23 14:24:44.424999936,0.03427192,-0.3340233,0.02932612,-0.003395234,-1.057998,0.3177255,0.0200131,0.05307141,-0.05008452,-0.00147787,-0.00106931,-0.00475081,-0.3821787,0.004026581,-0.3561067
2023-10-23 14:24:44.438999808,0.03248634,-0.3275865,0.02700317,-0.0107036,-1.034259,0.3265648,0.01839248,0.05330915,-0.05324071,-0.0016206199999999,0.00023774,-0.0031561899999999,-0.3822386,0.004849081,-0.3565418
2023-10-23 14:24:44.453000192,0.03052961,-0.3210754,0.02479174,-0.009498567,-1.020371,0.3432652,0.01684503,0.05321905,-0.05551822,-0.0015474499999999,-9.010000000000268e-05,-0.00227751,-0.3823276,0.005558964,-0.3569624
2023-10-23 14:24:44.467000064,0.02873514,-0.3149085,0.02292013,-0.005831775,-1.004417,0.3486464,0.01566745,0.05060114,-0.05746616,-0.00117758,-0.0026179099999999,-0.00194794,-0.3824272,0.005992079,-0.3573232
2023-10-23 14:24:44.480000000,0.0274725,-0.3087145,0.02108574,0.002446067,-0.987003,0.3255561,0.01493895,0.04570915,-0.06015865,-0.0007285,-0.00489199,-0.0026924899999999,-0.3825071,0.006335835,-0.3577682
2023-10-23 14:24:44.493999872,0.02648257,-0.3027642,0.02002081,0.007460728,-0.9618982,0.2796231,0.01453393,0.0386326,-0.0638959,-0.0004050199999999,-0.0070765499999999,-0.00373725,-0.3825676,0.006744281,-0.3584085
2023-10-23 14:24:44.508000000,0.02513124,-0.2970557,0.01857479,0.01728235,-0.9345325,0.2575492,0.01332593,0.03200498,-0.06683816,-0.001208,-0.00662762,-0.0029422599999999,-0.3826646,0.007111459,-0.3590427
2023-10-23 14:24:44.523000064,0.02339578,-0.291446,0.01706158,0.02631646,-0.9032589,0.2687194,0.01019419,0.02725441,-0.0692066,-0.0031317399999999,-0.00475057,-0.0023684399999999,-0.3829062,0.007465429,-0.3596746
2023-10-23 14:24:44.536000000,0.02162335,-0.286462,0.01533564,0.02604614,-0.8620436,0.2919386,0.006314248,0.02404151,-0.07076523,-0.003879942,-0.0032129,-0.00155863,-0.3830943,0.007750281,-0.360269
2023-10-23 14:24:44.548999936,0.0201139,-0.2816783,0.01376907,0.02890326,-0.8105873,0.2941121,0.00268251,0.0212315,-0.07184728,-0.003631738,-0.0028100099999999,-0.00108205,-0.3833242,0.007961757,-0.3609369
2023-10-23 14:24:44.563000064,0.01882706,-0.2771936,0.01265608,0.03168877,-0.7626292,0.2745899,-0.0006630328,0.01764669,-0.07316016,-0.0033455428,-0.00358481,-0.00131288,-0.3835524,0.008144938,-0.3617426
2023-10-23 14:24:44.576999936,0.01785234,-0.2729586,0.01146758,0.02522526,-0.7177789,0.2489085,-0.003690951,0.01451169,-0.07383182,-0.0030279182,-0.0031349999999999,-0.00067166,-0.3838363,0.008374202,-0.3624949
2023-10-23 14:24:44.591000064,0.01645744,-0.2691321,0.01045534,0.03423405,-0.6681592,0.2351034,-0.007153349,0.01227574,-0.07311416,-0.0034623979999999,-0.00223595,0.00071766,-0.3842081,0.008407154,-0.3632185
2023-10-23 14:24:44.604999936,0.01501437,-0.2656945,0.01003708,0.06263986,-0.6147407,0.2224173,-0.01004936,0.01009872,-0.07115768,-0.002896011,-0.00217702,0.0019564799999999,-0.3846315,0.008330795,-0.3639166
2023-10-23 14:24:44.620999936,0.01350103,-0.2624516,0.009865415,0.0935363,-0.5622761,0.2003705,-0.01226289,0.007851319,-0.06887726,-0.00221353,-0.0022474009999999,0.00228042,-0.3850287,0.008182213,-0.3646087
2023-10-23 14:24:44.634000128,0.01230768,-0.2596515,0.01016334,0.122764,-0.5133277,0.1612171,-0.01318702,0.00548667,-0.06667843,-0.00092413,-0.002364649,0.0021988299999999,-0.3852708,0.008094533,-0.3652233
2023-10-23 14:24:44.647000064,0.01169698,-0.2569302,0.01125585,0.1468274,-0.4640534,0.09722374,-0.01271436,0.00219817,-0.06507719,0.00047266,-0.0032884999999999,0.00160124,-0.3855572,0.007915569,-0.3659003
2023-10-23 14:24:44.660999936,0.0113809,-0.2545907,0.01209499,0.1498616,-0.4160185,0.03351771,-0.01151225,-0.001583013,-0.06419737,0.0012021099999999,-0.003781183,0.0008798199999999,-0.3858668,0.007650789,-0.3666863
2023-10-23 14:24:44.675000064,0.01110375,-0.2524628,0.0128328,0.1387495,-0.3721965,-0.007703376,-0.01054252,-0.004333744,-0.06393621,0.00096973,-0.0027507309999999,0.00026116,-0.3861886,0.007404374,-0.3674964
2023-10-23 14:24:44.688999936,0.01081591,-0.2506792,0.01337954,0.1260533,-0.3314206,-0.02592192,-0.009088567,-0.005695796,-0.06314487,0.0014539529999999,-0.001362052,0.0007913399999999,-0.3863221,0.007230351,-0.3682235
2023-10-23 14:24:44.703000064,0.01082491,-0.2490889,0.01387195,0.1093419,-0.2902008,-0.03697145,-0.006674681,-0.006180429,-0.06149294,0.002413886,-0.0004846329999999,0.00165193,-0.3863952,0.00714598,-0.3689328
2023-10-23 14:24:44.716000000,0.01082726,-0.2477703,0.01454033,0.09157618,-0.2571991,-0.04932808,-0.004496362,-0.006018377,-0.06005038,0.0021783189999999,0.000162052,0.00144256,-0.3864478,0.007010585,-0.3696419
2023-10-23 14:24:44.730000128,0.01113382,-0.2468272,0.01486993,0.06222739,-0.219992,-0.05856501,-0.002130453,-0.00646454,-0.05838947,0.002365909,-0.000446163,0.00166091,-0.386435,0.006837915,-0.370267
2023-10-23 14:24:44.744000000,0.0115817,-0.2459843,0.01519261,0.0352115,-0.1785609,-0.06684214,0.0001128148,-0.007669066,-0.05709245,0.0022432678,-0.001204526,0.0012970199999999,-0.3864331,0.006660863,-0.3709542
2023-10-23 14:24:44.757999872,0.01214212,-0.24548,0.01514777,0.003976971,-0.1395003,-0.06599732,0.001932815,-0.008064974,-0.05617661,0.0018200002,-0.000395908,0.00091584,-0.3864075,0.006576484,-0.3716764
2023-10-23 14:24:44.772999936,0.01252781,-0.2453813,0.01497243,-0.0238573,-0.09914041,-0.05446858,0.003063307,-0.007531017,-0.05516685,0.0011304919999999,0.000533957,0.0010097599999999,-0.3863305,0.006510077,-0.3723835
2023-10-23 14:24:44.787000064,0.01275713,-0.2455925,0.01468721,-0.03627593,-0.05393216,-0.03268418,0.00370895,-0.007378425,-0.05385813,0.000645643,0.000152592,0.00130872,-0.3863272,0.0063746,-0.373137
2023-10-23 14:24:44.801000192,0.01292541,-0.2457526,0.01411074,-0.04617495,-0.01670943,-0.007138399,0.003919078,-0.007667711,-0.05268837,0.000210128,-0.0002892859999999,0.0011697599999999,-0.3864291,0.006176705,-0.3739616
2023-10-23 14:24:44.813999872,0.01308719,-0.2461447,0.01367613,-0.06184004,0.0116918,0.01105689,0.004229958,-0.008281116,-0.05184072,0.0003108799999999,-0.000613405,0.0008476499999999,-0.3864765,0.005948163,-0.374772
2023-10-23 14:24:44.828000000,0.01352558,-0.2468061,0.01317157,-0.07075927,0.03685984,0.01355866,0.004951325,-0.009501973,-0.05138848,0.000721367,-0.001220857,0.0004522399999999,-0.3863317,0.005787962,-0.3755032
2023-10-23 14:24:44.842000128,0.01410018,-0.2474465,0.01285747,-0.08104943,0.06061652,0.004409757,0.005950277,-0.01206071,-0.05136736,0.000998952,-0.002558737,2.111999999999948e-05,-0.3862229,0.005566705,-0.3762774
2023-10-23 14:24:44.856000000,0.01458991,-0.2485097,0.0126063,-0.08648882,0.09138188,-0.006762123,0.006549976,-0.01570132,-0.05103559,0.0005996989999999,-0.00364061,0.00033177,-0.3861186,0.005253608,-0.3770005
2023-10-23 14:24:44.869999872,0.0151445,-0.2497057,0.01256845,-0.08315984,0.1233108,-0.01841264,0.006117884,-0.01824745,-0.05022642,-0.000432092,-0.0025461299999999,0.0008091699999999,-0.3860774,0.005002369,-0.3777043
2023-10-23 14:24:44.882999808,0.01540301,-0.2511314,0.01249145,-0.07055017,0.1581957,-0.02201592,0.005195572,-0.01938281,-0.04840691,-0.0009223119999999,-0.00113536,0.00181951,-0.3860081,0.004727733,-0.3783673
2023-10-23 14:24:44.897000192,0.0156669,-0.2526549,0.01256188,-0.05872712,0.1850563,-0.02240556,0.004486976,-0.01952333,-0.04619228,-0.0007085959999999,-0.0001405199999999,0.0022146299999999,-0.3858995,0.004452366,-0.3790324
2023-10-23 14:24:44.911000064,0.01601253,-0.2541076,0.0126842,-0.04813379,0.2003922,-0.02541791,0.004439131,-0.02087326,-0.04400158,-4.784500000000035e-05,-0.00134993,0.0021907,-0.3857986,0.004081776,-0.3797089
2023-10-23 14:24:44.924999936,0.01649877,-0.2556573,0.01324007,-0.03327657,0.2111659,-0.05208818,0.005824191,-0.02313989,-0.04207147,0.00138506,-0.0022666299999999,0.0019301099999999,-0.3856483,0.003606675,-0.3803934
2023-10-23 14:24:44.938999808,0.01732345,-0.257055,0.0142008,-0.0209115,0.2179696,-0.09061836,0.008257353,-0.02568645,-0.0401247,0.002433162,-0.00254656,0.00194677,-0.3855272,0.003147909,-0.3810614
2023-10-23 14:24:44.953999872,0.01811549,-0.2586766,0.01512809,-0.00720069,0.2308564,-0.1221815,0.01055443,-0.0279196,-0.03810081,0.002297077,-0.0022331499999999,0.00202389,-0.3852981,0.002676821,-0.381644
2023-10-23 14:24:44.967000064,0.01904629,-0.2604343,0.01629601,-0.01013243,0.2407089,-0.1549408,0.01213562,-0.0293456,-0.03605756,0.0015811899999999,-0.001426,0.0020432499999999,-0.38504,0.002177549,-0.3821878
2023-10-23 14:24:44.980999936,0.02005544,-0.2623166,0.01757662,-0.002729778,0.2541376,-0.1787146,0.01343305,-0.0308197,-0.03364062,0.00129743,-0.0014740999999999,0.0024169399999999,-0.384833,0.001707349,-0.3827039
2023-10-23 14:24:44.994999808,0.02084106,-0.2640224,0.01884291,0.01123209,0.2649004,-0.1938376,0.01490709,-0.03231034,-0.03019033,0.0014740399999999,-0.00149064,0.00345029,-0.3846469,0.001172262,-0.383215
2023-10-23 14:24:45.008999936,0.02168916,-0.265637,0.02030187,0.02206045,0.2672175,-0.2081974,0.01649703,-0.0330007,-0.02630375,0.0015899399999999,-0.00069036,0.00388658,-0.384396,0.0006190862,-0.3836274
2023-10-23 14:24:45.023000064,0.02271953,-0.2672842,0.02175523,0.02841336,0.2659945,-0.2196974,0.01862281,-0.0342504,-0.02216568,0.00212578,-0.0012496999999999,0.00413807,-0.3840262,2.632706e-05,-0.3839374
2023-10-23 14:24:45.036999936,0.02398843,-0.268805,0.02327796,0.02383717,0.2603617,-0.2383903,0.02077626,-0.03659525,-0.01848005,0.00215345,-0.00234485,0.0036856299999999,-0.3836504,-0.0006316714,-0.3842359
2023-10-23 14:24:45.049999872,0.02527612,-0.2707388,0.02481005,0.01748055,0.2690087,-0.2562606,0.02263798,-0.03969021,-0.01555903,0.0018617199999999,-0.0030949599999999,0.00292102,-0.3832717,-0.001372115,-0.3845374
2023-10-23 14:24:45.064000000,0.02678929,-0.2727233,0.02624379,0.003745205,0.2876726,-0.2693256,0.02330699,-0.04199247,-0.01311986,0.00066901,-0.00230226,0.0024391699999999,-0.3830031,-0.002022317,-0.38484
2023-10-23 14:24:45.078000128,0.02814459,-0.2753546,0.02718221,-0.01707096,0.3153934,-0.2584993,0.02212756,-0.04318911,-0.01037227,-0.0011794299999999,-0.00119664,0.00274759,-0.3826562,-0.002664828,-0.3850026
2023-10-23 14:24:45.092000000,0.02936334,-0.2782038,0.02811151,-0.03601476,0.3586761,-0.2378686,0.01959962,-0.04326487,-0.007160417,-0.0025279399999999,-7.575999999999417e-05,0.0032118529999999,-0.3823915,-0.00326753,-0.3852047
2023-10-23 14:24:45.105999872,0.03076053,-0.2816025,0.02900333,-0.05829779,0.413991,-0.2245264,0.01540244,-0.04225128,-0.004212109,-0.00419718,0.0010135899999999,0.0029483079999999,-0.38223,-0.003841375,-0.3854679
2023-10-23 14:24:45.120000000,0.03223356,-0.2856758,0.02979512,-0.08143563,0.4814911,-0.2195669,0.01006818,-0.04184391,-0.001971511,-0.00533426,0.00040737,0.002240598,-0.3821892,-0.004495431,-0.385858
2023-10-23 14:24:45.134000128,0.03408663,-0.2904947,0.03079781,-0.1026912,0.5661639,-0.2265487,0.003925992,-0.04288305,-0.0004101716,-0.006142188,-0.00103914,0.0015613394,-0.3822474,-0.00515818,-0.386279
2023-10-23 14:24:45.147000064,0.03616862,-0.2959498,0.03210976,-0.1200135,0.6677352,-0.2575866,-0.002819823,-0.04484967,0.0004522834,-0.006745815,-0.00196662,0.000862455,-0.3822665,-0.005924826,-0.3866431
2023-10-23 14:24:45.160999936,0.03888092,-0.302472,0.0339336,-0.1368271,0.7873666,-0.3068585,-0.01028445,-0.04835797,-0.0008477203,-0.007464627,-0.0035082999999999,-0.0013000037,-0.3823322,-0.006706385,-0.3871059
2023-10-23 14:24:45.176000000,0.04187686,-0.3098208,0.03565307,-0.1642977,0.9110165,-0.3564844,-0.01704594,-0.05182633,-0.003664278,-0.0067614899999999,-0.0034683599999999,-0.0028165576999999,-0.3824275,-0.007506808,-0.3876485
2023-10-23 14:24:45.190000128,0.04502659,-0.3175066,0.03681099,-0.2132517,1.016147,-0.3817865,-0.02425125,-0.05494813,-0.007097499,-0.0072053099999999,-0.0031218,-0.003433221,-0.3826256,-0.008320172,-0.3882591
2023-10-23 14:24:45.204000000,0.04828987,-0.3252111,0.03792477,-0.2506615,1.088763,-0.3898744,-0.02969827,-0.05728278,-0.009461874,-0.00544702,-0.00233465,-0.002364375,-0.3828405,-0.009112859,-0.3888744
2023-10-23 14:24:45.216999936,0.05148133,-0.3332792,0.03906655,-0.2774647,1.142853,-0.3964841,-0.03338457,-0.0590235,-0.01049983,-0.0036863,-0.00174072,-0.0010379559999999,-0.3830232,-0.009954701,-0.3894693
2023-10-23 14:24:45.231000064,0.05479807,-0.3412896,0.04039186,-0.2871681,1.185993,-0.407435,-0.0367257,-0.06062039,-0.01074237,-0.0033411299999999,-0.00159689,-0.0002425399999999,-0.3832491,-0.01082347,-0.3900428
2023-10-23 14:24:45.244999936,0.0580865,-0.3494051,0.04202546,-0.2829248,1.220011,-0.4151866,-0.03951403,-0.06259536,-0.009936638,-0.0027883299999999,-0.0019749699999999,0.000805732,-0.3835039,-0.01171757,-0.3905608
2023-10-23 14:24:45.259000064,0.06147316,-0.3573592,0.04366869,-0.2746186,1.238266,-0.4248618,-0.04192857,-0.06548157,-0.008490636,-0.0024145399999999,-0.00288621,0.001446002,-0.3838184,-0.01268821,-0.3911608
2023-10-23 14:24:45.273999872,0.06506164,-0.3651324,0.04541883,-0.265359,1.243088,-0.4425177,-0.04406691,-0.0697098,-0.007131401,-0.00213834,-0.0042282299999999,0.0013592349999999,-0.3841883,-0.01378326,-0.3917876
2023-10-23 14:24:45.287000064,0.06908084,-0.3729959,0.04732199,-0.2602343,1.248328,-0.4754857,-0.04644388,-0.0753556,-0.00618265,-0.0023769699999999,-0.0056457999999999,0.000948751,-0.3845364,-0.01497247,-0.392316
2023-10-23 14:24:45.301000192,0.07329029,-0.3807301,0.04943958,-0.2550817,1.253712,-0.5112394,-0.0488654,-0.08261295,-0.005175243,-0.00242152,-0.00725735,0.0010074069999999,-0.3848965,-0.0163011,-0.3927433
2023-10-23 14:24:45.313999872,0.07791604,-0.3881952,0.05176258,-0.2508471,1.249825,-0.5518909,-0.05022793,-0.09152413,-0.003957709,-0.0013625299999999,-0.0089111799999999,0.001217534,-0.3852117,-0.01777777,-0.3931724
2023-10-23 14:24:45.328999936,0.08349751,-0.3950601,0.05432818,-0.2373909,1.230027,-0.6196947,-0.04961607,-0.1003356,-0.003987352,0.0006118599999999,-0.00881147,-2.9643000000000204e-05,-0.3855154,-0.01932783,-0.3937015
2023-10-23 14:24:45.342000128,0.08953167,-0.4016421,0.05738273,-0.2216749,1.201221,-0.7075899,-0.04655074,-0.1096978,-0.004339578,0.0030653299999999,-0.0093622,-0.0003522259999999,-0.3857429,-0.02104307,-0.3942364
2023-10-23 14:24:45.358000128,0.09583758,-0.4081346,0.06071564,-0.1959679,1.189633,-0.7831213,-0.04238059,-0.1177065,-0.004480558,0.0041701499999999,-0.0080087,-0.0001409799999999,-0.3859103,-0.02279329,-0.3946492
2023-10-23 14:24:45.369999872,0.1022114,-0.4146144,0.06359171,-0.188552,1.184013,-0.826359,-0.03992044,-0.1237837,-0.004249363,0.00246015,-0.0060771999999999,0.000231195,-0.3861267,-0.02451917,-0.3949901
2023-10-23 14:24:45.384000000,0.108336,-0.4209331,0.06593701,-0.203841,1.175118,-0.8335894,-0.03982999,-0.1272487,-0.003346953,9.044999999999886e-05,-0.0034649999999999,0.0009024099999999,-0.3863768,-0.02621446,-0.3953258
2023-10-23 14:24:45.398000128,0.1137781,-0.4266518,0.06816723,-0.208142,1.133027,-0.8043365,-0.04015554,-0.1277538,-0.001656178,-0.00032555,-0.0005051,0.001690775,-0.3865847,-0.0278352,-0.3956341
2023-10-23 14:24:45.412000000,0.119045,-0.431538,0.07028271,-0.1986682,1.062941,-0.7671513,-0.03904302,-0.1255028,0.001794553,0.00111252,0.002251,0.003450731,-0.3868108,-0.02942019,-0.3958685
2023-10-23 14:24:45.426000128,0.1240249,-0.4359365,0.07259255,-0.173475,0.9901786,-0.7266384,-0.03690325,-0.123214,0.005169752,0.0021397699999999,0.0022887999999999,0.0033751989999999,-0.3870278,-0.03101026,-0.3960073
2023-10-23 14:24:45.440999936,0.1292176,-0.4403924,0.07451385,-0.160286,0.9345183,-0.7029864,-0.03355629,-0.1212801,0.006046443,0.0033469599999999,0.0019339,0.000876691,-0.3871058,-0.03258926,-0.3961697
2023-10-23 14:24:45.454999808,0.134767,-0.4444783,0.07619961,-0.1703554,0.8856661,-0.7099886,-0.02958258,-0.1190149,0.004860176,0.00397371,0.0022651999999999,-0.001186267,-0.3871797,-0.03406253,-0.396357
2023-10-23 14:24:45.467000064,0.1397213,-0.4485912,0.0779413,-0.1735956,0.8544194,-0.6970549,-0.02519671,-0.1160968,0.004641708,0.00438587,0.0029181,-0.000218468,-0.3872094,-0.03550317,-0.3964686
2023-10-23 14:24:45.480999936,0.1443422,-0.4520991,0.07968524,-0.159788,0.8089335,-0.6652701,-0.02055557,-0.1121633,0.00562397,0.00464114,0.0039335,0.000982262,-0.3871793,-0.03682869,-0.3965156
2023-10-23 14:24:45.494999808,0.1483349,-0.4552349,0.08157295,-0.1270038,0.7589004,-0.6184486,-0.01485678,-0.1071441,0.008950151,0.0056987899999999,0.0050191999999999,0.003326181,-0.3870385,-0.03814756,-0.3964203
2023-10-23 14:24:45.508999936,0.1519219,-0.4580039,0.08368701,-0.08444288,0.7086288,-0.5652763,-0.008708546,-0.1005349,0.01230192,0.006148234,0.0066092,0.0033517689999999,-0.3868364,-0.0392901,-0.3963102
2023-10-23 14:24:45.525000192,0.1549158,-0.460477,0.08565845,-0.04532865,0.6576107,-0.5089133,-0.00295005,-0.09086696,0.01560478,0.0057584959999999,0.00966794,0.00330286,-0.3866205,-0.04024738,-0.3961584
2023-10-23 14:24:45.536999936,0.1571048,-0.4625173,0.087119,-0.02720775,0.588064,-0.4247618,0.001896284,-0.07869929,0.01955887,0.004846334,0.0121676699999999,0.0039540899999999,-0.3864091,-0.04098098,-0.3959354
2023-10-23 14:24:45.551000064,0.1586547,-0.4643042,0.08804795,-0.02536529,0.5104942,-0.3388036,0.005967967,-0.06604188,0.02378845,0.004071683,0.01265741,0.00422958,-0.3861327,-0.04161575,-0.3956251
2023-10-23 14:24:45.564999936,0.159861,-0.4657562,0.08882879,-0.02725724,0.4278538,-0.2622069,0.01031861,-0.05401558,0.02715357,0.004350643,0.0120262999999999,0.0033651199999999,-0.3857649,-0.04210518,-0.395265
2023-10-23 14:24:45.578000128,0.1608998,-0.4670426,0.08964977,-0.02580239,0.3623303,-0.2064243,0.01523872,-0.04313647,0.02982388,0.00492011,0.0108791099999999,0.00267031,-0.385384,-0.04247796,-0.3948656
2023-10-23 14:24:45.592000000,0.1614621,-0.4683563,0.09045039,-0.0174914,0.3174672,-0.1509855,0.02044505,-0.03410747,0.03176333,0.0052063299999999,0.009029,0.0019394499999999,-0.3848574,-0.0427958,-0.3944856
2023-10-23 14:24:45.607000064,0.1618731,-0.4696724,0.09143294,-0.006400933,0.2963965,-0.1091681,0.02565536,-0.02626266,0.03370132,0.0052103099999999,0.00784481,0.00193799,-0.3842776,-0.04302251,-0.3941001
2023-10-23 14:24:45.620999936,0.1621834,-0.4708608,0.09223271,0.001402132,0.270439,-0.07006477,0.03108948,-0.02045086,0.03566049,0.00543412,0.0058117999999999,0.00195917,-0.3836396,-0.04323354,-0.3936261
2023-10-23 14:24:45.634000128,0.1624916,-0.4717458,0.09288791,0.005918805,0.2421225,-0.05230816,0.03577489,-0.01636256,0.03775312,0.0046854099999999,0.0040883,0.0020926299999999,-0.3829825,-0.04343303,-0.393093
2023-10-23 14:24:45.648000000,0.1627574,-0.4725566,0.09373398,0.01418378,0.2187022,-0.03738922,0.03947276,-0.01396676,0.04018215,0.00369787,0.0023958,0.0024290299999999,-0.382358,-0.04361653,-0.3925041
2023-10-23 14:24:45.661999872,0.1632096,-0.4731919,0.09424388,0.01459498,0.1870936,-0.03812419,0.0424473,-0.01314022,0.04325664,0.0029745399999999,0.00082654,0.0030744899999999,-0.3816412,-0.04386652,-0.3918648
2023-10-23 14:24:45.676000000,0.163779,-0.4738098,0.09492287,0.01888794,0.1703482,-0.0466982,0.04477101,-0.013775,0.04659892,0.0023237099999999,-0.00063478,0.00334228,-0.3808853,-0.04416303,-0.3911905
2023-10-23 14:24:45.691000064,0.1646801,-0.474174,0.09558886,0.02990836,0.1547009,-0.07261135,0.04707342,-0.01571116,0.05024281,0.0023024099999999,-0.0019361599999999,0.0036438899999999,-0.3801426,-0.04446816,-0.3904287
2023-10-23 14:24:45.704000000,0.1658229,-0.4743234,0.09649132,0.04421928,0.1435252,-0.1065873,0.04975028,-0.01832318,0.05346054,0.00267686,-0.00261202,0.00321773,-0.3793642,-0.04480619,-0.3896711
2023-10-23 14:24:45.716999936,0.1673984,-0.4742987,0.09719324,0.05480313,0.1245624,-0.1486335,0.05251972,-0.02089908,0.05640204,0.0027694399999999,-0.0025758999999999,0.0029414999999999,-0.3785744,-0.04511717,-0.3887991
2023-10-23 14:24:45.731000064,0.1690561,-0.4738623,0.09754609,0.05984124,0.0883514,-0.1885007,0.05478107,-0.0229163,0.0595822,0.00226135,-0.00201722,0.00318016,-0.3777901,-0.0454175,-0.3878869
2023-10-23 14:24:45.744999936,0.1707333,-0.473291,0.09786178,0.05741576,0.04939586,-0.2121596,0.05605818,-0.02395884,0.06384948,0.0012771099999999,-0.0010425399999999,0.0042672799999999,-0.37706,-0.0456516,-0.3868596
2023-10-23 14:24:45.759000064,0.1722032,-0.4724696,0.09793738,0.05436102,0.005873879,-0.2208831,0.05635605,-0.02435355,0.06803997,0.0002978699999999,-0.00039471,0.00419049,-0.3763382,-0.04595805,-0.3858204
