time,acceleration_x,acceleration_y,acceleration_z
1702105727657,0.001812018,0.00114542,0.003376857
1702105727668,0.000162898,0.0008703619,0.008107836
1702105727682,-0.001949832,0.0003426494,0.012643837
1702105727703,-0.004056734,-0.0005535246999999,0.017146643
1702105727721,-0.006481435,-0.0012822763999999,0.02190702
1702105727741,-0.009217335,-0.0016532168999999,0.026982368
1702105727757,-0.011858542,-0.0017779308999999,0.032205072
1702105727774,-0.014709785,-0.0017222461099999,0.03756773
1702105727791,-0.017345058,-0.0010934528099999,0.043009664
1702105727808,-0.019847627,-1.916180999999976e-05,0.048232663
1702105727824,-0.022573896,0.00086212449,0.053018207
1702105727840,-0.0252807819999999,0.00175272309,0.057152603
1702105727857,-0.0278420879999999,0.00274154389,0.060679505
1702105727871,-0.030253349,0.00398545089,0.063917262
1702105727886,-0.032493104,0.00542551589,0.066907068
1702105727901,-0.03461048,0.00631512619,0.069526883
1702105727916,-0.0363612659999999,0.00668895479,0.0718857099999999
1702105727930,-0.038002547,0.00613247579,0.073618276
1702105727945,-0.039499486,0.00477299479,0.0745365949
1702105727959,-0.040599472,0.00306758179,0.0750300548
1702105727974,-0.0414345479,0.00183245979,0.07498275171
1702105727988,-0.0423250182,0.00144381479,0.07453875881
1702105728002,-0.04306982,0.00173921659,0.07375131631
1702105728016,-0.0434291152,0.00259558989,0.07270177831
1702105728030,-0.0431933652,0.00341075449,0.07136252331
1702105728045,-0.0428726998,0.00414206719,0.06964431231
1702105728058,-0.041925694,0.00421885105,0.06758146731
1702105728072,-0.040222534,0.00368180835,0.06521350131
1702105728086,-0.0381712279999999,0.00256476135,0.06266900231
1702105728100,-0.0356366899999999,0.00067831035,0.06003805631
1702105728114,-0.0327955759999999,-0.00161395265,0.05754139631
1702105728128,-0.0296586119999999,-0.00403053865,0.05535071631
1702105728142,-0.0267476999999999,-0.00632680965,0.05345288131
1702105728156,-0.0235836029999999,-0.00867606665,0.05191119131
1702105728171,-0.0202777289999999,-0.01103873065,0.05042139131
1702105728184,-0.0166928359999999,-0.01330687165,0.04902354631
1702105728199,-0.0136002829999999,-0.0152179676499999,0.04769578731
1702105728213,-0.0103298079999999,-0.01658561565,0.04675453151
1702105728227,-0.0072270469999999,-0.01748279855,0.04632415761
1702105728241,-0.0041413079999999,-0.01827967175,0.04640180345
1702105728255,-0.0010524699999999,-0.01922255155,0.04688231625
1702105728268,0.001878048,-0.01998996745,0.04784113785
1702105728283,0.004476455,-0.02113747045,0.04923320985
1702105728296,0.007045117,-0.02260022045,0.05136085585
1702105728310,0.009615762,-0.02431932845,0.05419568385
1702105728323,0.011993249,-0.02639347145,0.05769428285
1702105728338,0.014160982,-0.02866978245,0.06172013885
1702105728352,0.016032246,-0.03129012145,0.06628331485
1702105728365,0.017634042,-0.03421183645,0.07105460185
1702105728379,0.018699797,-0.0373996234499999,0.07610832485
1702105728393,0.0191710276,-0.0403304734499999,0.08162554285
1702105728407,0.0193285119,-0.0429242314499999,0.08804879985
1702105728421,0.0186349575,-0.0455881274499999,0.09503101885
1702105728435,0.0174803665,-0.04808434245,0.10276989385
1702105728448,0.0158971355,-0.05046547745,0.11100942085
1702105728462,0.0141308775,-0.0527545334499999,0.11936618085
1702105728476,0.0117477735,-0.0551878884499999,0.12748396985
1702105728490,0.0088734445,-0.0577739124499999,0.13527611985
1702105728504,0.0057544305,-0.0606512474499999,0.14274207185
1702105728518,0.0024946375,-0.06337518545,0.14998981285
1702105728532,-0.0013017294999999,-0.06631414145,0.15694335785
1702105728545,-0.0056672634999999,-0.06921428545,0.16355912785
1702105728559,-0.0104652744999999,-0.07211251045,0.16990494685
1702105728573,-0.0157227804999999,-0.07479332845,0.17591912185
1702105728588,-0.0211994184999999,-0.07712454145,0.18152005285
1702105728602,-0.0274464084999999,-0.07977574045,0.18632506985
1702105728616,-0.0339500554999999,-0.0828570704499999,0.19079458285
1702105728629,-0.0407740984999999,-0.0863804534499999,0.19482698085
1702105728642,-0.0479087874999999,-0.08964102745,0.19867234585
1702105728656,-0.0555604254999999,-0.0921348404499999,0.20250237685
1702105728670,-0.0632004165,-0.09399781145,0.20634466585
1702105728685,-0.0710121864999999,-0.09577638945,0.20993375485
1702105728699,-0.0789018894999999,-0.09751449345,0.21339021385
1702105728712,-0.0869591184999999,-0.09954751245,0.21664025985
1702105728727,-0.0950465024999999,-0.10131486645,0.21971222085
1702105728740,-0.1033655404999999,-0.10286908145,0.22261721285
1702105728755,-0.1117890795,-0.10444081245,0.22537252585
1702105728769,-0.1201452705,-0.10634586545,0.22775657285
1702105728782,-0.1283950955,-0.10819461445,0.22957957485
1702105728796,-0.1361887095,-0.11009590245,0.23073857085
1702105728810,-0.1437514565,-0.11217632545,0.23109776635
1702105728824,-0.1506856395,-0.11418270845,0.23085021535
1702105728839,-0.1566724235,-0.11654732145,0.23008665855
1702105728852,-0.1619811145,-0.11872584445,0.2287010435499999
1702105728866,-0.1660676895,-0.12048047045,0.2266014295499999
1702105728880,-0.1694123625,-0.12212699545,0.22378734655
1702105728894,-0.1718021015,-0.12348146645,0.22043064755
1702105728907,-0.1730225545,-0.1250683874499999,0.21655449755
1702105728922,-0.17348356,-0.12642567845,0.21226122855
1702105728935,-0.1732496303,-0.12764542845,0.20758822555
1702105728949,-0.1727086751,-0.1283212407499999,0.20237027455
1702105728963,-0.1721407832,-0.1285676534499999,0.19657167055
1702105728977,-0.1715017922,-0.1288316719499999,0.19020106155
1702105728991,-0.1707917615,-0.1296229310499999,0.18338840055
1702105729010,-0.1706646817,-0.1313988220499999,0.1759396645499999
1702105729023,-0.1708852809,-0.1330585870499999,0.16840840955
1702105729037,-0.1712124883,-0.1340388905499999,0.16115638755
1702105729052,-0.1719278681,-0.13419684815,0.15444356555
1702105729066,-0.1728626145,-0.13327106135,0.1478818765499999
1702105729080,-0.1739578465,-0.13197494635,0.1412754765499999
1702105729094,-0.1752622505,-0.13076076335,0.1342971575499999
1702105729107,-0.1765929965,-0.12960908335,0.1268612275499999
1702105729122,-0.1782766055,-0.12790960135,0.1191257785499999
1702105729136,-0.1801407745,-0.12557361535,0.1113569495499999
1702105729150,-0.1821702725,-0.12276544235,0.1037879225499999
1702105729165,-0.1842666825,-0.11925057035,0.0965481385499999
1702105729177,-0.1866212185,-0.11559609435,0.0894888185499999
1702105729191,-0.1890291184999999,-0.11245856535,0.0825106775499999
1702105729205,-0.1911885854999999,-0.11028762335,0.0756322625499999
1702105729219,-0.1934716375,-0.10948435625,0.0690730365499999
1702105729233,-0.1959323124999999,-0.1102485807499999,0.0625503125499999
1702105729247,-0.1985970124999999,-0.1127421867499999,0.0562087695499999
1702105729261,-0.2012335214999999,-0.1167931167499999,0.0504913515499999
1702105729275,-0.2040073445,-0.1216056907499999,0.0453833625499999
1702105729289,-0.2067035735,-0.1270263337499999,0.0412245005499999
1702105729303,-0.2097190844999999,-0.1331049597499999,0.0380840825499999
1702105729318,-0.2129338844999999,-0.1404923567499999,0.0359093115499999
1702105729331,-0.2160203455,-0.1501309507499999,0.0348020935499999
1702105729345,-0.2189208745,-0.1614784907499999,0.0345109372499999
1702105729359,-0.2215790635,-0.1744394107499999,0.0351297647499999
1702105729373,-0.2242563465,-0.1873279007499999,0.0366939647499999
1702105729387,-0.2264392465,-0.1990026007499999,0.0391454907499999
1702105729401,-0.2284405995,-0.2099149507499999,0.0422608087499999
1702105729415,-0.2299666585,-0.2206408807499999,0.0459197897499999
1702105729429,-0.2312066875,-0.2318827007499999,0.0497246237499999
1702105729442,-0.2319608641,-0.2432545107499999,0.0538003817499999
1702105729457,-0.2321995472,-0.25441104075,0.0582628897499999
1702105729471,-0.2318085361,-0.26435375275,0.0633186497499999
1702105729485,-0.2310863486,-0.27299872475,0.0686625427499999
1702105729498,-0.2299040366,-0.28078101075,0.0740929907499999
1702105729512,-0.2280537296,-0.28841927775,0.0796416877499999
1702105729526,-0.2257260166,-0.29615245175,0.0851582757499999
1702105729540,-0.2229495095999999,-0.30375665775,0.0908778257499999
1702105729555,-0.2199205836,-0.31081730775,0.0968419487499999
1702105729568,-0.2167524156,-0.31696829075,0.1032899897499999
1702105729582,-0.2134233546,-0.32207727275,0.1103686167499999
1702105729596,-0.2100549606,-0.32629395875,0.1180127507499999
1702105729610,-0.2068544716,-0.33012837975,0.1261173177499999
1702105729624,-0.2036210676,-0.33414035775,0.13476965175
1702105729638,-0.2007306856,-0.33847137475,0.14362999375
1702105729652,-0.1983999716,-0.34305944675,0.15306435575
1702105729665,-0.1964891246,-0.34729444475,0.16327112575
1702105729679,-0.1950564286,-0.35139669775,0.17450697575
1702105729693,-0.194103714,-0.35530200275,0.18670265575
1702105729707,-0.1936658114,-0.35931682975,0.20022453575
1702105729721,-0.1937509812,-0.36287824175,0.2150158757499999
1702105729735,-0.1940353532,-0.36621368775,0.2308469757499999
1702105729749,-0.1946583486,-0.36942620675,0.2475504457499999
1702105729763,-0.1956167465,-0.37281346775,0.2649811357499999
1702105729777,-0.1968774234999999,-0.37620362975,0.2832653657499999
1702105729791,-0.1983738725,-0.37946519675,0.3026739457499999
1702105729805,-0.2000087455,-0.38199464475,0.3236933257499999
1702105729819,-0.2022141505,-0.38428421075,0.3462435157499999
1702105729833,-0.2045595455,-0.38606432275,0.3707258357499999
1702105729847,-0.2069870525,-0.38793941075,0.39691957575
1702105729860,-0.2097544794999999,-0.38959074775,0.4249397757499999
1702105729875,-0.2128221604999999,-0.39139620675,0.4550388657499999
1702105729889,-0.2161807344999999,-0.39346922475,0.48747960575
1702105729902,-0.2198694654999999,-0.39529098175,0.52219886575
1702105729916,-0.2240408334999999,-0.39691600075,0.55980563575
1702105729930,-0.2286223594999999,-0.39829501675,0.6001888157499999
1702105729944,-0.2334657284999999,-0.39931930675,0.6434228757499999
1702105729959,-0.2388586744999999,-0.40047071275,0.6896545157499999
1702105729972,-0.2450494084999999,-0.40180013375,0.7386814157499999
1702105729986,-0.2520974875,-0.40337038075,0.7907113057499999
1702105730000,-0.2595640255,-0.40552689075,0.84585346575
1702105730014,-0.2678802905,-0.40800042075,0.90432751575
1702105730028,-0.2771535945,-0.41054200475,0.96660242575
1702105730042,-0.2872043245,-0.41301237475,1.03283237575
1702105730056,-0.2981517745,-0.41562410775,1.10290214575
1702105730070,-0.3098927045,-0.41869638975,1.1767837157499998
1702105730084,-0.3225213245,-0.42253507675,1.25444974575
1702105730098,-0.3356701445,-0.42765851675,1.3359544557499998
1702105730111,-0.3496339344999999,-0.43317316375,1.4215776557499995
1702105730126,-0.3642644845,-0.43887580875,1.5115526057499995
1702105730139,-0.3795516244999999,-0.4444060817499999,1.6060007357499997
1702105730154,-0.3955252244999999,-0.4492896557499999,1.7051575357499995
1702105730167,-0.4120982244999999,-0.4536441257499999,1.80923803575
1702105730181,-0.4292473844999999,-0.4578184547499999,1.91795903575
1702105730196,-0.4471738144999999,-0.4616113747499999,2.03146313575
1702105730209,-0.4658148744999999,-0.4654207647499999,2.1495991357499995
1702105730223,-0.4852192544999999,-0.4691950227499999,2.2724014357499995
1702105730237,-0.5056148344999999,-0.4726188127499999,2.40028713575
1702105730252,-0.5268900044999999,-0.4759302697499999,2.5330356357499992
1702105730265,-0.5489512744999999,-0.4784898657499999,2.67088843575
1702105730279,-0.5720670145,-0.4802650307499999,2.81371713575
1702105730293,-0.5960022045,-0.4815774127499999,2.9615855357499994
1702105730307,-0.6208668645,-0.4824127416499999,3.1147476357499992
1702105730321,-0.6473223545,-0.4835708126499999,3.27302403575
1702105730335,-0.6749544144999999,-0.4851829126499999,3.43643623575
1702105730348,-0.7039666244999999,-0.4869828006499999,3.60523313575
1702105730362,-0.7344807244999999,-0.4892028996499999,3.77911383575
1702105730376,-0.7665140344999999,-0.4923056556499999,3.95841793575
1702105730391,-0.8004823744999999,-0.4966547346499999,4.14337683575
1702105730404,-0.8362397245,-0.5022214406499999,4.33397643575
1702105730418,-0.8737303544999999,-0.5086071586499998,4.53056503575
1702105730433,-0.9129995145,-0.5157363236499999,4.733628135749999
1702105730447,-0.9541023445,-0.5243587206499999,4.942937735749999
1702105730460,-0.9966829445,-0.5348971606499999,5.158228835749999
1702105730473,-1.0409297745,-0.54796292065,5.37932903575
1702105730488,-1.0869220245,-0.56342616065,5.606524535749999
1702105730503,-1.1343702545,-0.58158383065,5.839549835749999
1702105730517,-1.1831578845,-0.6032893806499999,6.078898335749999
1702105730530,-1.2329306445,-0.6285681506499999,6.323752935749999
1702105730543,-1.2832809345,-0.6580832406499999,6.573950135749999
1702105730558,-1.3340252745,-0.6938094006499999,6.829293335749998
1702105730572,-1.3845829145000002,-0.7367377106499998,7.088841735749998
1702105730586,-1.4343737145000002,-0.7849493006499998,7.351909835749998
1702105730600,-1.4826760545000002,-0.8361975106499998,7.619154635749998
1702105730613,-1.5284684145000005,-0.8877969106499998,7.891771635749999
1702105730627,-1.5704441245000005,-0.9361256406499998,8.171109235749999
1702105730641,-1.6080668445,-0.9784024006499998,8.45771493575
1702105730656,-1.6407015345000002,-1.0131920506499998,8.75210553575
1702105730670,-1.6679673045000003,-1.04225910065,9.05356593575
1702105730683,-1.6892223045000003,-1.06605409065,9.36165293575
1702105730697,-1.7043610145000003,-1.08302237065,9.67709633575
1702105730710,-1.7126433285000002,-1.09184682765,10.00163683575
1702105730724,-1.7140575555000002,-1.09475546665,10.335300135749998
1702105730738,-1.7087427065000005,-1.09473930355,10.678086135749998
1702105730755,-1.6971359965000004,-1.09319080155,11.02936703575
1702105730766,-1.6798286865000005,-1.08927547555,11.38965843575
1702105730779,-1.6572989165000005,-1.08323627055,11.75947123575
1702105730794,-1.6301900765000004,-1.07664186555,12.13931053575
1702105730808,-1.5983146965000004,-1.07167196455,12.52848313575
1702105730822,-1.5618516565000005,-1.06972255855,12.92752563575
1702105730836,-1.5215684765000004,-1.0715033095500002,13.33583833575
1702105730850,-1.4773085765000005,-1.0769458875500002,13.75432813575
1702105730864,-1.4292591665000005,-1.0848894675500005,14.18310813575
1702105730878,-1.3776766865000003,-1.0936735845500003,14.62251083575
1702105730892,-1.3225052365000003,-1.1038399145500002,15.07326803575
1702105730906,-1.2641025865000004,-1.1168028445500002,15.53383763575
1702105730920,-1.2020347965000004,-1.1337485045500002,16.00383343575
1702105730934,-1.1361531665000004,-1.15496231455,16.48238853575
1702105730948,-1.0651028865000003,-1.18095027455,16.969898635750003
1702105730963,-0.9881659465000006,-1.21209491455,17.467062235750003
1702105730976,-0.9055202765000006,-1.24853155455,17.974297035750002
1702105730996,-0.8172472765000005,-1.28877153455,18.49254953575
1702105731004,-0.7232664465000005,-1.33178382455,19.02357563575
1702105731015,-0.6242692965000005,-1.37657745455,19.56549013575
1702105731029,-0.5196694965000005,-1.42382943455,20.12087753575
1702105731043,-0.4098110965000004,-1.47342312455,20.68938203575
1702105731057,-0.2947892965000004,-1.52508676455,21.27157423575
1702105731071,-0.1745916965000004,-1.57806273455,21.86767213575
1702105731085,-0.0492576965000004,-1.63263726455,22.47729553575
1702105731098,0.0815930034999995,-1.69029046455,23.099743135750003
1702105731112,0.2176812034999995,-1.75188510455,23.73407313575
1702105731126,0.3593871034999995,-1.81738645455,24.380504835750003
1702105731140,0.5063262034999996,-1.88601372455,25.037710135750004
1702105731154,0.6587323034999996,-1.95753357455,25.704950435750003
1702105731168,0.8166342034999996,-2.03284110455,26.38181813575
1702105731182,0.9794157034999996,-2.1102444145500003,27.067817035750004
1702105731196,1.1464687034999996,-2.1803368645500005,27.765395635750004
1702105731210,1.3171190034999996,-2.2265207945500007,28.477621235750004
1702105731224,1.4917404034999997,-2.239584554550001,29.20626183575
1702105731237,1.6695416034999997,-2.2291860145500006,29.948711135750003
1702105731251,1.8480277035,-2.2065313145500007,30.698475535750003
1702105731265,2.0238819034999995,-2.173857194550001,31.452468735750003
1702105731279,2.1942942035,-2.127290724550001,32.20980253575
1702105731293,2.3576814035,-2.0660292345500006,32.96943743575
1702105731307,2.5134140034999994,-1.9956963845500009,33.72780503575
1702105731321,2.6604331034999995,-1.9248886945500008,34.479803235750005
1702105731335,2.7984061035,-1.8594960545500008,35.222542835750005
1702105731349,2.9262964034999994,-1.8016031145500009,35.95382103575
1702105731362,3.0439560034999995,-1.7485207045500006,36.674257235750005
1702105731376,3.1509629034999995,-1.6957952545500006,37.38484983575
1702105731390,3.2474424635,-1.6421641445500006,38.08686733575
1702105731404,3.3334034735,-1.5885573745500006,38.78000553575
1702105731418,3.4096060135,-1.536223194550001,39.46390763575
1702105731432,3.4772945035,-1.483692944550001,40.13925653575
1702105731446,3.5378820935,-1.428346194550001,40.80808063575
1702105731460,3.5918421235,-1.3688560445500009,41.47138123575
1702105731474,3.6397862435,-1.3062388645500007,42.129173435750005
1702105731488,3.6821513735,-1.2429021845500008,42.78159953575
1702105731501,3.7195911335,-1.1802232045500007,43.430031735750006
1702105731515,3.7524309935,-1.1188808945500008,44.076327035750005
1702105731529,3.7805974435,-1.0589931745500007,44.72303383575
1702105731544,3.8048498035,-1.0015853445500007,45.37234443575
1702105731557,3.8247900535,-0.9475859445500008,46.02663013575
1702105731571,3.8404369935,-0.8975500045500007,46.68758063575
1702105731585,3.8513927135,-0.8527196745500006,47.356630935750005
1702105731600,3.8575110055,-0.8156240645500006,48.03415663575
1702105731612,3.8592009515,-0.7897615345500005,48.72047123575
1702105731626,3.8563728865,-0.7759351345500005,49.41544363575
1702105731641,3.8489195605,-0.7732736635500005,50.12023953575
1702105731655,3.8367901505,-0.7790499505500005,50.83708023575
1702105731669,3.8199980105,-0.7897332705500005,51.56672633575
1702105731683,3.7979326705,-0.8062475205500005,52.30965273575
1702105731697,3.7704217305,-0.8316901205500005,53.06491853575
1702105731710,3.7376263205,-0.8700239705500005,53.83074913575
1702105731725,3.6994747305,-0.9242935005500004,54.60840353575
1702105731738,3.6568348405,-0.9888285505500004,55.39705013575
1702105731752,3.6095215605,-1.0588157105500005,56.19946453575
1702105731766,3.5575492804999995,-1.1312284805500004,57.01633503575
1702105731781,3.5004429605,-1.2073991005500004,57.84717403575
1702105731794,3.4380264705,-1.2899709205500005,58.68838563575
1702105731808,3.3693323505,-1.3790550805500006,59.53845953574999
1702105731822,3.2927384305,-1.4712546105500006,60.39848133574999
1702105731836,3.2081748605,-1.5619553205500003,61.26922043574999
1702105731850,3.1154144505,-1.6473605605500006,62.15093403574999
1702105731864,3.0144193505,-1.7250044505500006,63.04401253574999
1702105731877,2.9055698505,-1.7940370505500003,63.94727233574999
1702105731891,2.7883225505,-1.8534144505500003,64.85941123574999
1702105731905,2.6633011505,-1.9029844705500003,65.77978753574999
1702105731919,2.5310136505000003,-1.9411287205500003,66.70804003574999
1702105731933,2.3929654505,-1.9674674905500005,67.64373343575
1702105731947,2.2499883505,-1.9796492205500005,68.58613033575
1702105731961,2.1025801505,-1.9720703695500004,69.53534563575
1702105731975,1.9518040505,-1.9355253695500003,70.49204793575001
1702105731989,1.7992864505,-1.8631057295500004,71.45748043575001
1702105732003,1.6481753505,-1.7637921095500004,72.43109413575002
1702105732016,1.5013663505,-1.6582108095500003,73.40611533575002
1702105732030,1.3615006505,-1.5669530995500005,74.37789263575002
1702105732044,1.2306073505,-1.5014238395500004,75.34632243575001
1702105732058,1.1098481505000002,-1.4559971395500004,76.31004683575001
1702105732072,0.9997473505000002,-1.4206998195500005,77.27026033575001
1702105732086,0.9008868205000002,-1.3857116095500004,78.22752413575002
1702105732100,0.8148819005000002,-1.3464110995500005,79.18111563575002
1702105732114,0.7417564005000002,-1.3045310695500003,80.12952613575001
1702105732128,0.6808700405000002,-1.2609210195500005,81.07085173575001
1702105732142,0.6316771305000002,-1.2124670895500005,82.00413573575001
1702105732156,0.5925754805000002,-1.1563655895500005,82.92896383575001
1702105732169,0.5622506805000002,-1.0877938395500004,83.84678383575002
1702105732184,0.5392633005000002,-1.0025832295500003,84.75930753575001
1702105732197,0.5222946105000001,-0.9003286295500004,85.66898433575001
1702105732211,0.5107301905000001,-0.7884476295500004,86.57722913575002
1702105732225,0.5051160515000002,-0.6763750295500004,87.48361563575001
1702105732239,0.5051584713800001,-0.5717444295500004,88.38843423575001
1702105732253,0.5102534593800001,-0.4815030595500004,89.29288913575002
1702105732267,0.5195500773800001,-0.4098139395500004,90.19826773575002
1702105732281,0.5320706173800002,-0.3590346795500004,91.10539093575002
1702105732295,0.5479376073800002,-0.3315489695500004,92.01458273575004
1702105732308,0.5673844473800002,-0.3264944575500004,92.92623203575002
1702105732323,0.5907072973800002,-0.3435644875500004,93.84086843575002
1702105732338,0.6181507873800002,-0.3813514075500004,94.75991373575002
1702105732350,0.6490458273800002,-0.4358013075500004,95.68447413575002
1702105732364,0.6839473673800002,-0.5044864575500004,96.61547283575004
1702105732378,0.7236317273800001,-0.5856694175500005,97.55294053575004
1702105732392,0.7688472773800001,-0.6781424175500005,98.49656983575002
1702105732406,0.8195919373800001,-0.7807354175500005,99.44584183575002
1702105732420,0.8755606473800002,-0.8905625175500005,100.40062043575
1702105732434,0.9365122973800002,-1.0038828175500003,101.36039433575002
1702105732447,1.00278333738,-1.1191107175500006,102.32476473575002
1702105732462,1.07505474738,-1.2371855175500006,103.29294473575004
1702105732476,1.15338375738,-1.3584348175500005,104.26394783575005
1702105732490,1.23812781738,-1.4820991175500005,105.23752613575004
1702105732504,1.3289113273800002,-1.6063340175500005,106.21323343575004
1702105732518,1.42530648738,-1.7296189175500003,107.19011553575002
1702105732531,1.5270329873800002,-1.8521511175500005,108.16729533575004
1702105732545,1.63398468738,-1.9725030175500005,109.14361323575002
1702105732559,1.74487208738,-2.0874090175500006,110.11823693575002
1702105732573,1.85773458738,-2.190445817550001,111.09127583575004
1702105732587,1.97056198738,-2.2653727275500004,112.06573253575004
1702105732601,2.08085348738,-2.28747326755,113.04841933575004
1702105732615,2.18729438738,-2.2546952375500005,114.04509043575004
1702105732629,2.28732138738,-2.1872315675500005,115.05459343575002
1702105732642,2.37768856738,-2.1078768175500007,116.06819643575002
1702105732657,2.45479553738,-2.033996287550001,117.08022743575002
1702105732670,2.51838329738,-1.9726820875500009,118.08514743575002
1702105732684,2.56871017738,-1.921906157550001,119.07726283575002
1702105732698,2.60686630738,-1.8696965575500009,120.05801333575002
1702105732712,2.63270353738,-1.8009413975500008,121.03019083575002
1702105732726,2.64468497738,-1.7068630575500008,121.99797323575002
1702105732740,2.64409226688,-1.5906121575500007,122.96196663575004
1702105732754,2.63303233688,-1.4583356575500008,123.92042453575004
1702105732768,2.61308784688,-1.312417757550001,124.87223313575004
1702105732782,2.58559387688,-1.1567556575500009,125.81854563575004
1702105732795,2.55182061688,-0.9983375575500008,126.75988043575003
1702105732809,2.51363960688,-0.8433061575500008,127.69644993575004
1702105732823,2.47207932688,-0.6962288575500009,128.62984833575004
1702105732837,2.42715701688,-0.5603673575500009,129.56204523575005
1702105732851,2.38040707688,-0.4368345575500009,130.49514513575005
1702105732866,2.33217234688,-0.3290467575500009,131.43079253575004
1702105732879,2.28251482688,-0.2394478875500009,132.37053153575005
1702105732894,2.23195349688,-0.1695008775500009,133.31579963575004
1702105732907,2.1806899468800003,-0.1199875575500009,134.26699843575005
1702105732921,2.1286625868800004,-0.0913120675500009,135.22480843575002
1702105732935,2.0757617668800004,-0.0844537685500009,136.19073423575003
1702105732949,2.02198140688,-0.0985058585500009,137.16432623575002
1702105732963,1.96623449688,-0.1328133385500009,138.14566593575003
1702105732977,1.90712378688,-0.1863467185500009,139.13539043575005
1702105732990,1.84399392688,-0.2555167685500009,140.13375363575005
1702105733004,1.77672542688,-0.3375466885500009,141.14089663575004
1702105733018,1.7051219568800002,-0.4327788785500009,142.15685863575004
1702105733032,1.6285887568800002,-0.5417253785500009,143.18122163575003
1702105733046,1.54702864688,-0.6610004785500009,144.21398263575003
1702105733060,1.45970621688,-0.7863207785500008,145.25571763575002
1702105733073,1.3665998468800002,-0.9143524785500008,146.30705263575
1702105733087,1.2669499568800002,-1.0416715785500008,147.36876663575
1702105733101,1.1606205568800003,-1.1650742785500008,148.43996963575
1702105733115,1.0467790568800004,-1.2830935785500008,149.52118663575
1702105733130,0.9244899568800004,-1.3954835785500008,150.61194463575
1702105733144,0.7934269568800003,-1.502024378550001,151.71121263575
1702105733157,0.6534555568800003,-1.600838608550001,152.81862863575
1702105733171,0.5046955568800003,-1.691139358550001,153.93245463575
1702105733185,0.3486974568800003,-1.774452798550001,155.04925963575
1702105733199,0.1876076568800003,-1.8476946685500009,156.16607763575
1702105733213,0.0231208568800003,-1.887487108550001,157.28516263575
1702105733226,-0.1418901431199996,-1.868440168550001,158.41165563575
1702105733240,-0.3048705431199996,-1.810059028550001,159.55112263575
1702105733254,-0.4628166431199997,-1.742962828550001,160.69364763575
1702105733268,-0.6128486431199998,-1.689229028550001,161.82869963575
1702105733282,-0.7504161431199998,-1.653267598550001,162.95434363575
1702105733296,-0.8741341431199998,-1.614003808550001,164.07236963575
1702105733310,-0.98448774312,-1.548782488550001,165.18501663575
1702105733324,-1.08170523312,-1.449128958550001,166.29822563575
1702105733338,-1.1661850831199998,-1.3272043585500009,167.40753763575
1702105733352,-1.23798376312,-1.1974044585500008,168.50747763575
1702105733366,-1.2976560631199998,-1.066103858550001,169.59469163575
1702105733380,-1.3476318131199998,-0.9313606585500008,170.67104663575
1702105733393,-1.3900670831199995,-0.788787258550001,171.74021063575
1702105733407,-1.4273624331199997,-0.641357358550001,172.80524663575
1702105733421,-1.4610963231199996,-0.4994185585500009,173.86708763574998
1702105733435,-1.4925081531199995,-0.3732753585500009,174.92603763575
1702105733450,-1.5223942431199995,-0.2705942585500009,175.98279163575
1702105733463,-1.5513380831199994,-0.1970938485500009,177.03853163575
1702105733477,-1.5804747331199995,-0.1526744685500009,178.09459463574998
1702105733491,-1.6105406931199997,-0.1358540685500009,179.15339363574998
1702105733505,-1.6422737331199997,-0.1443158925500009,180.21659263575
1702105733519,-1.6760816131199994,-0.1775020625500009,181.28492963575
1702105733532,-1.711775603119999,-0.2336922025500009,182.35796263575
1702105733547,-1.7481818831199991,-0.3117780925500009,183.43535563575
1702105733560,-1.7839692131199991,-0.4082790525500009,184.51749863575
1702105733574,-1.81752785312,-0.516699752550001,185.60537263575
1702105733588,-1.84768598312,-0.633692352550001,186.69988363575
1702105733602,-1.87343896312,-0.758826752550001,187.80080263575
1702105733616,-1.89491523312,-0.893183752550001,188.90732063575
1702105733630,-1.91227728312,-1.033632252550001,190.01889463575
1702105733643,-1.92513745312,-1.176096052550001,191.13637763575
1702105733657,-1.9328216581199995,-1.316759152550001,192.26151063575
1702105733671,-1.9347002401199995,-1.4525011525500011,193.39581463575
1702105733686,-1.93091089012,-1.5826797525500012,194.53871563575
1702105733699,-1.92082723012,-1.7072134525500011,195.68945263575
1702105733713,-1.9044173001199995,-1.8256522525500007,196.84699463575
1702105733727,-1.8815136601199995,-1.9367356525500008,198.01092363575
1702105733741,-1.8532401201199995,-2.038528852550001,199.18022863575
1702105733755,-1.82051566012,-2.128646172550001,200.35271463575
1702105733769,-1.7851985901199994,-2.202173522550001,201.52538563575
1702105733783,-1.7491091301199997,-2.246903012550001,202.69856763575
1702105733796,-1.7140981501199994,-2.2405226615500013,203.87538063575
1702105733810,-1.6817204801199994,-2.169154461550001,205.06312763575
1702105733824,-1.653072020119999,-2.0515975615500013,206.26205763575
1702105733838,-1.6284934701199991,-1.9225321615500013,207.45971463575
1702105733852,-1.6082721901199994,-1.8028169615500007,208.64710263575
1702105733866,-1.5942282301199997,-1.7050790515500014,209.82047663575
1702105733880,-1.5894668431199994,-1.6279676115500017,210.97696863575
1702105733894,-1.5957801091199997,-1.5610068115500015,212.11549363575
1702105733908,-1.6146427991199994,-1.4882641715500016,213.23845063575
1702105733924,-1.6456891691199995,-1.3979169815500017,214.35074363575
1702105733936,-1.6884135291199995,-1.2870581815500015,215.45534663575
1702105733949,-1.7407031491199996,-1.1569660815500018,216.55231363575
1702105733963,-1.8002940291199996,-1.0074849815500018,217.64132863575
1702105733977,-1.86506902912,-0.8418418815500017,218.72289963575
1702105733991,-1.93233295912,-0.6685588815500018,219.79736063575
1702105734005,-2.00085869912,-0.4961208815500018,220.86494063575
1702105734019,-2.0705121991199995,-0.3293512815500018,221.92729163575
1702105734033,-2.14178707912,-0.1724111815500018,222.98617963575
1702105734047,-2.21512956912,-0.0283843815500018,224.04373663575
1702105734060,-2.2911169891199994,0.0962207184499981,225.10104263575
1702105734074,-2.3694978591199995,0.1964276184499981,226.15918463575
1702105734089,-2.45080970912,0.2673596184499981,227.21844863575
1702105734102,-2.53505929912,0.3074393484499981,228.27909063575
1702105734116,-2.62266676912,0.3154643574499981,229.34190963575
1702105734130,-2.71457577912,0.2951480674499981,230.40749863575
1702105734144,-2.81156315912,0.2487332274499981,231.47728263575
1702105734158,-2.91417155912,0.179042247449998,232.55213563575
1702105734172,-3.02304615912,0.088596517449998,233.63355963575
1702105734185,-3.13794485912,-0.0170446825500019,234.72181163575
1702105734200,-3.25888125912,-0.1332687825500019,235.81758963575
1702105734213,-3.38638945912,-0.2560948825500019,236.92196463575
1702105734227,-3.5212358591199995,-0.3822662825500019,238.03512663575
1702105734241,-3.66442465912,-0.5100804825500018,239.15706063575
1702105734255,-3.81580545912,-0.6369832825500018,240.28801363575
1702105734269,-3.97418265912,-0.7590231825500018,241.42738963575
1702105734283,-4.13844385912,-0.8728476825500018,242.57431663575
1702105734297,-4.30746045912,-0.9772428825500018,243.72815463575
1702105734311,-4.48183595912,-1.0699015025500018,244.88872363575
1702105734325,-4.66228815912,-1.1466916725500018,246.05616063575
1702105734338,-4.84817035912,-1.2096224025500018,247.22823663575
1702105734352,-5.03752295912,-1.2658932025500018,248.39954463575003
1702105734366,-5.226622159120001,-1.3136732425500015,249.56425063575003
1702105734380,-5.41326155912,-1.3240700125500018,250.72475963575
1702105734394,-5.59604365912,-1.279787792550002,251.88600163575
1702105734408,-5.77349545912,-1.203193622550002,253.05796163575
1702105734422,-5.944251959120001,-1.121942072550002,254.23131363575
1702105734436,-6.107894159120001,-1.049257952550002,255.40489263575
1702105734450,-6.2633665591200005,-0.980238272550002,256.58157663575
1702105734464,-6.40816195912,-0.8931371225500021,257.76088363575
1702105734478,-6.54270715912,-0.7760835225500021,258.94367963575
1702105734492,-6.66722695912,-0.6355395225500021,260.12944863575
1702105734505,-6.78101145912,-0.4873667225500021,261.31185463575
1702105734520,-6.88362035912,-0.3433515225500021,262.48915663575
1702105734533,-6.97576324912,-0.2025447225500021,263.66091963575
1702105734547,-7.05717416912,-0.0591937225500021,264.82851763575
1702105734562,-7.129821949119999,0.0868369774499979,265.99436963575
1702105734574,-7.195318659119999,0.2274511774499979,267.15845863575
1702105734588,-7.254704059119999,0.3534152774499979,268.31913963575
1702105734603,-7.308938909119999,0.4564739774499979,269.47546563575
1702105734616,-7.359026109119999,0.5334047874499979,270.62808363575
1702105734631,-7.40579539912,0.5822828274499978,271.77707563575
1702105734644,-7.449775229119999,0.6015823074499979,272.92280963575
1702105734658,-7.491676569119999,0.5904952274499978,274.06614163575
1702105734672,-7.532619469119999,0.5503835374499978,275.20887563575
1702105734686,-7.574272559119999,0.4848511574499978,276.35309563575004
1702105734700,-7.617234899119999,0.4000634074499978,277.50027763575
1702105734715,-7.660934299119999,0.2975954074499978,278.65129063575
1702105734728,-7.703295429119999,0.1792729074499978,279.80546763575
1702105734741,-7.742496909119999,0.0456455074499977,280.96179863575003
1702105734755,-7.778067759119999,-0.1001818925500022,282.12099463575004
1702105734770,-7.809596699119999,-0.2525037925500022,283.28421463575006
1702105734784,-7.836756589119999,-0.4053339925500022,284.45211163575004
1702105734797,-7.858455689119999,-0.5570709925500023,285.62527963575
1702105734811,-7.874594669119999,-0.7069436925500022,286.80354763575
1702105734825,-7.883788270119999,-0.8516545925500022,287.98739663575003
1702105734839,-7.885363895119999,-0.9872393925500024,289.17693763575005
1702105734853,-7.878239495119999,-1.1103858925500023,290.37256263575006
1702105734867,-7.863633275119999,-1.2212198925500024,291.57268863575007
1702105734881,-7.842088315119999,-1.3196591325500024,292.77559863575004
1702105734894,-7.813654425119999,-1.4077322925500024,293.97895263575003
1702105734908,-7.778933985119999,-1.4878619025500024,295.17884063575
1702105734922,-7.739913175119999,-1.5633331825500023,296.37173163575
1702105734936,-7.700867225119999,-1.6298851525500022,297.55740163575
1702105734951,-7.667040595119999,-1.6566138325500022,298.74078463575
1702105734965,-7.640497925119998,-1.626065142550002,299.92676263575
1702105734978,-7.6216030951199985,-1.568434542550002,301.12594063575
1702105734992,-7.608845825119999,-1.5135999425500022,302.32535063575
1702105735006,-7.600027940119999,-1.479916272550002,303.52221763575
1702105735020,-7.594858647119999,-1.466313502550002,304.71808263575
1702105735034,-7.594412299619999,-1.453455882550002,305.91037863575
1702105735048,-7.600437759619999,-1.418021812550002,307.09689263575
1702105735061,-7.615469539619999,-1.3520256225500022,308.28135163575
1702105735075,-7.639415829619999,-1.2614036625500022,309.46376563575
1702105735089,-7.670188869619999,-1.1493991625500022,310.64391063575
1702105735103,-7.706389289619999,-1.009277862550002,311.82450563575
1702105735117,-7.746543369619999,-0.8358590625500021,313.00817363575
1702105735130,-7.788879389619998,-0.642016362550002,314.19497463575
1702105735144,-7.831946169619998,-0.445580362550002,315.38065263575
1702105735158,-7.874824889619998,-0.261518762550002,316.56271063575
1702105735173,-7.918229429619998,-0.099508662550002,317.74006663574994
1702105735187,-7.962936849619998,0.0346029374499979,318.91192163574993
1702105735200,-8.009763009619999,0.1350421374499979,320.0781986357499
1702105735214,-8.059144119619999,0.2009273374499979,321.2402776357499
1702105735228,-8.11101689962,0.2327599474499979,322.4002426357499
1702105735242,-8.16473221962,0.2330674422499979,323.55997463574994
1702105735256,-8.220310679619999,0.2034612122499979,324.7215676357499
1702105735270,-8.27886909962,0.1470598222499979,325.8857196357499
1702105735283,-8.34178315962,0.0650429022499979,327.0532086357499
1702105735297,-8.41044782962,-0.039139197750002,328.2241546357499
1702105735311,-8.48517688962,-0.162544197750002,329.3994986357499
1702105735325,-8.56631937962,-0.302046897750002,330.58039363574994
1702105735339,-8.65448826962,-0.452564997750002,331.76654263574994
1702105735354,-8.75041408962,-0.608807097750002,332.95866263575
1702105735367,-8.85500458962,-0.7649208977500019,334.1569766357499
1702105735381,-8.96926218962,-0.916626997750002,335.3627236357499
1702105735395,-9.09345088962,-1.059696297750002,336.57704863574986
1702105735408,-9.22764698962,-1.189282797750002,337.8006796357499
1702105735422,-9.37175058962,-1.302821397750002,339.03397563574987
1702105735436,-9.52459748962,-1.402771247750002,340.2756376357499
1702105735450,-9.68477798962,-1.490028067750002,341.5241526357499
1702105735464,-9.851224189619998,-1.564128617750002,342.7777776357499
1702105735478,-10.021449889619998,-1.628807777750002,344.0336726357499
1702105735492,-10.192739389619998,-1.689562007750002,345.2868396357499
1702105735507,-10.362859189619998,-1.740604947750002,346.5352426357499
1702105735520,-10.530461289619998,-1.746805766750002,347.7826096357499
1702105735533,-10.693534989619998,-1.702795146750002,349.0350686357499
1702105735547,-10.85095198962,-1.643186156750002,350.2997846357499
1702105735561,-11.00118668962,-1.5886053867500018,351.5647216357499
1702105735575,-11.14257298962,-1.545588026750002,352.8290816357499
1702105735590,-11.27461688962,-1.499581696750002,354.0950676357499
1702105735603,-11.39583068962,-1.422927026750002,355.3608126357499
1702105735617,-11.506384589619998,-1.310719526750002,356.62772563574987
1702105735631,-11.60614560962,-1.175932426750002,357.89193263574987
1702105735644,-11.69595524962,-1.033719626750002,359.1486766357499
1702105735659,-11.77748262962,-0.889721226750002,360.3969036357499
1702105735673,-11.85215143962,-0.737742326750002,361.6382396357498
1702105735687,-11.92057441962,-0.572618226750002,362.8760576357499
1702105735701,-11.98374621962,-0.4018574267500019,364.1125696357499
1702105735715,-12.042644439619998,-0.2400235267500019,365.34571063574987
1702105735729,-12.09829429962,-0.0990238267500019,366.57353963574985
1702105735742,-12.15156079962,0.014186373249998,367.7951996357498
1702105735756,-12.203747989619998,0.094582623249998,369.01016463574985
1702105735769,-12.25637959962,0.142484913249998,370.2189486357498
1702105735784,-12.310064829619998,0.157112363249998,371.4229106357498
1702105735798,-12.36471405962,0.138934253249998,372.6240256357498
1702105735811,-12.420200479619998,0.090464053249998,373.82437063574986
1702105735827,-12.476657299619998,0.018676643249998,375.02653263574985
1702105735840,-12.533374659619998,-0.0720798367500019,376.23196963574986
1702105735853,-12.587966729619998,-0.1804602367500019,377.4409406357499
1702105735867,-12.638383999619998,-0.3070096367500019,378.65287663574986
1702105735881,-12.683727369619998,-0.4504471367500019,379.8670256357499
1702105735895,-12.724044119619998,-0.6075162367500019,381.0832536357499
1702105735910,-12.758654639619998,-0.7731452367500019,382.30165063574987
1702105735923,-12.787429249619995,-0.941093836750002,383.5232236357498
1702105735937,-12.810490129619996,-1.105916836750002,384.74985163574985
1702105735951,-12.827418289619995,-1.2627333367500018,385.98228763574986
1702105735965,-12.837592669619998,-1.4076753367500017,387.2210026357498
1702105735978,-12.840835544619996,-1.5391153367500017,388.46517663574986
1702105735993,-12.837258902619997,-1.6569215367500016,389.71331063574985
1702105736006,-12.827248972619996,-1.7621030367500017,390.9631676357498
1702105736020,-12.811841512619996,-1.8554929867500016,392.21281063574986
1702105736034,-12.793215272619996,-1.9335453067500017,393.4597816357498
1702105736047,-12.773028702619996,-1.9919223467500016,394.7031886357498
1702105736062,-12.753654952619996,-2.009303666750002,395.94673863574985
1702105736075,-12.736873382619995,-1.9623038767500016,397.1936816357498
1702105736090,-12.723391352619997,-1.867391776750002,398.45191163574987
1702105736104,-12.713418433619996,-1.7608350767500018,399.7134736357499
1702105736118,-12.706201629619995,-1.670483146750002,400.9693686357499
1702105736131,-12.702399153619996,-1.6075529167500018,402.2194766357499
1702105736144,-12.702932421519996,-1.5667154467500015,403.4620486357499
1702105736158,-12.710175164519995,-1.5270635667500017,404.6961376357499
1702105736173,-12.727236184519995,-1.4664918067500017,405.9201716357499
1702105736187,-12.759130904519996,-1.3788671567500017,407.1383786357499
1702105736201,-12.806145304519996,-1.2693469567500018,408.3511396357499
1702105736215,-12.865372414519996,-1.1360581567500017,409.55821963574994
1702105736229,-12.933600964519997,-0.9710716567500016,410.7622526357499
1702105736242,-13.007473914519997,-0.7766082567500017,411.9651986357499
1702105736258,-13.083561774519996,-0.5674898567500016,413.1667086357499
1702105736270,-13.159467544519996,-0.3595064567500016,414.3651326357499
1702105736284,-13.234014284519995,-0.1631242567500015,415.56142263574986
1702105736298,-13.307406104519997,0.0159600432499984,416.75659963574986
1702105736311,-13.380803804519996,0.1728466432499984,417.95137063574987
1702105736326,-13.455575714519997,0.3008078432499984,419.1466526357499
1702105736340,-13.532175234519997,0.3955931432499984,420.34291863574987
1702105736354,-13.611046634519996,0.4519130332499984,421.54053063574986
1702105736368,-13.692308334519998,0.4704347932499984,422.74018663574986
1702105736382,-13.776878604519998,0.4521766632499984,423.9424676357499
1702105736395,-13.86564444452,0.4007819232499984,425.14796663574987
1702105736409,-13.95889933452,0.3206768532499984,426.35812063574986
1702105736423,-14.05705604452,0.2146604532499984,427.5739316357498
1702105736438,-14.16084064452,0.0865408532499984,428.7958366357498
1702105736451,-14.27101734452,-0.0615493467500015,430.0246766357498
1702105736465,-14.38738254452,-0.2260910467500015,431.2602366357498
1702105736478,-14.51013254452,-0.4021387467500016,432.50257163574986
1702105736493,-14.63853044452,-0.5852979467500016,433.75148863574987
1702105736506,-14.77284744452,-0.7707852467500016,435.00752263574987
1702105736521,-14.91372934452,-0.9516594467500016,436.2709606357499
1702105736534,-15.06245444452,-1.1201782467500017,437.5413526357499
1702105736547,-15.21930954452,-1.2729072467500018,438.8188316357499
1702105736561,-15.38356074452,-1.4094334467500018,440.10200963574994
1702105736575,-15.55286254452,-1.5265776467500018,441.3894126357499
1702105736590,-15.72452414452,-1.6188421867500018,442.6782306357499
1702105736603,-15.89641314452,-1.6777295367500018,443.9673566357499
1702105736618,-16.06668504452,-1.6795657887500015,445.25535163575
1702105736630,-16.23334384452,-1.6164297187500016,446.54589763575
1702105736644,-16.39425594452,-1.5187188887500016,447.84119763575
1702105736658,-16.547055544520003,-1.4226250287500015,449.13131063575
1702105736672,-16.690045544520004,-1.3416912187500016,450.41382163575
1702105736687,-16.823186444520005,-1.2642453087500016,451.69101863575
1702105736701,-16.946151544520003,-1.1565311087500016,452.96471263575
1702105736713,-17.06058914452,-1.0069115087500016,454.23853063575
1702105736727,-17.165862844520003,-0.8308674087500015,455.51372263575
1702105736741,-17.26088383452,-0.6490896087500015,456.78052963575
1702105736755,-17.346457404520002,-0.4731784087500015,458.03727763575
1702105736769,-17.424150454520003,-0.3028012087500015,459.28375663575
1702105736783,-17.493858844520002,-0.1316286087500015,460.5204216357501
1702105736797,-17.556437254520002,0.0401882912499984,461.75002763575
1702105736810,-17.612776234520002,0.2041265912499984,462.97359563575
1702105736824,-17.664658264520003,0.3502599912499984,464.19086663575
1702105736838,-17.713127704520005,0.4700297912499984,465.4034146357501
1702105736854,-17.758644334520007,0.5614202712499985,466.61255363575
1702105736867,-17.801157864520007,0.6211254612499985,467.81842663575
1702105736880,-17.840750894520006,0.6484090512499985,469.02167763575005
1702105736894,-17.878642954520007,0.6424690502499985,470.2223946357501
1702105736908,-17.915461454520006,0.6053878802499985,471.4216266357501
1702105736922,-17.952367134520006,0.5417439902499984,472.6209486357501
1702105736937,-17.988678574520005,0.4584046202499984,473.82207963575
1702105736950,-18.02306070452001,0.3598679302499984,475.02506963575
1702105736963,-18.053259814520008,0.2462349302499984,476.22909063575
1702105736978,-18.077639074520008,0.1150185302499984,477.4325226357501
1702105736992,-18.09526706452001,-0.0326835697500015,478.63554463575
1702105737005,-18.10608214452001,-0.1874864697500015,479.83927963575
1702105737020,-18.11032775552001,-0.3394234697500016,481.04495163575
1702105737033,-18.10813157752001,-0.4834603697500016,482.25394063575
1702105737048,-18.098562236520014,-0.6211849697500016,483.46540663575
1702105737062,-18.07979921652001,-0.7554120697500015,484.67744263575
1702105737075,-18.051987496520013,-0.8863706697500016,485.88881863574994
1702105737091,-18.01569726652001,-1.0105416697500016,487.09865263574994
1702105737103,-17.971825726520013,-1.1251463697500017,488.30634663575
1702105737117,-17.921609786520012,-1.2276571697500016,489.51217363575
1702105737131,-17.86564229652001,-1.3154948997500016,490.7167486357499
1702105737145,-17.80614469652001,-1.3901110597500017,491.9198296357499
1702105737159,-17.74596009652001,-1.4542608097500014,493.12094163574994
1702105737174,-17.688796156520013,-1.4903799197500014,494.32451863574994
1702105737187,-17.636350456520013,-1.4695995597500011,495.53405263575
1702105737201,-17.589535046520012,-1.4059096897500014,496.75762163575
1702105737215,-17.547632616520012,-1.3369739197500017,497.98575963575
1702105737228,-17.509344636520012,-1.2848459797500014,499.20789663574993
1702105737242,-17.47530123652001,-1.2534372297500014,500.4245406357499
1702105737256,-17.44686959652001,-1.2261369597500014,501.6328866357499
1702105737270,-17.42618512652001,-1.1729795297500014,502.8339166357499
1702105737284,-17.416227244520012,-1.0795758697500015,504.0314686357499
1702105737298,-17.42105935052001,-0.9524302697500016,505.2280266357498
1702105737312,-17.44143025052001,-0.8047538697500015,506.4194656357499
1702105737326,-17.476845480520012,-0.6362572697500015,507.6061946357499
1702105737340,-17.524807210520013,-0.4427534697500015,508.7905936357499
1702105737354,-17.582977710520012,-0.2316975697500015,509.97319163574986
1702105737367,-17.64924002052001,-0.0222484697500015,511.1511056357498
1702105737381,-17.72133779052001,0.1703647302499985,512.3228266357498
1702105737395,-17.797996170520012,0.3372104302499985,513.4889776357498
1702105737409,-17.87823680052001,0.4750872302499985,514.6514966357498
1702105737423,-17.961295190520012,0.5819502302499986,515.8125986357499
1702105737437,-18.046410400520013,0.6575824302499986,516.9746586357498
1702105737451,-18.13278850052001,0.7005972302499986,518.1389576357499
1702105737465,-18.220231570520014,0.7081012302499986,519.3065086357499
1702105737478,-18.30918227052001,0.6821408002499986,520.4775506357498
1702105737492,-18.399912970520017,0.6251890402499986,521.6525136357499
1702105737506,-18.492787880520016,0.5413507202499985,522.8321986357498
1702105737520,-18.58817028052001,0.4335262202499985,524.0174956357498
1702105737534,-18.68660819052001,0.3064130202499985,525.2084966357498
1702105737548,-18.78921069052001,0.1632119202499985,526.4049906357499
1702105737562,-18.89697889052001,0.0080367202499984,527.6067006357499
1702105737575,-19.010948990520014,-0.1537901797500015,528.8136546357499
1702105737590,-19.13187569052001,-0.3173498797500015,530.0263446357499
1702105737604,-19.25960879052001,-0.4798411797500015,531.2447756357499
1702105737617,-19.39412149052001,-0.6401357797500016,532.4685776357499
1702105737631,-19.53520129052001,-0.7951788797500016,533.6976796357499
1702105737645,-19.68211149052001,-0.9416171797500016,534.9313826357499
1702105737658,-19.83438779052001,-1.0759233797500016,536.1696616357499
1702105737673,-19.99204889052001,-1.1955926797500016,537.4124946357499
1702105737688,-20.15453489052001,-1.3002783797500015,538.6576916357499
1702105737701,-20.320386590520013,-1.3925452297500016,539.9010366357498
1702105737715,-20.486546790520013,-1.4728920497500015,541.1380766357498
1702105737729,-20.65119349052001,-1.5189924997500015,542.3714636357498
1702105737742,-20.812284690520013,-1.5094954467500017,543.6044576357498
1702105737756,-20.968309490520014,-1.4648302967500015,544.8452516357498
1702105737771,-21.11796319052001,-1.4157244967500016,546.0841416357498
1702105737784,-21.259716190520017,-1.3785997667500016,547.3148516357498
1702105737797,-21.39367159052001,-1.3472098267500017,548.5433686357499
1702105737812,-21.520146890520017,-1.2885416867500017,549.7704486357499
1702105737825,-21.63881409052001,-1.1826460867500015,550.9988486357498
1702105737840,-21.74955509052002,-1.0402104867500015,552.2302806357499
1702105737854,-21.852020690520018,-0.8813115867500017,553.4541566357499
1702105737867,-21.945149970520017,-0.7191653867500016,554.6674686357499
1702105737882,-22.028351720520018,-0.5564459867500017,555.8686206357498
1702105737896,-22.10210524052001,-0.3871773867500017,557.0594846357499
1702105737909,-22.16796155052002,-0.2069482867500016,558.2441586357498
1702105737923,-22.22830293052002,-0.0211053867500016,559.4255286357499
1702105737937,-22.28487938052002,0.1567703132499983,560.6037856357499
1702105737951,-22.33806549052002,0.3150564132499983,561.7781176357499
1702105737965,-22.38810296052002,0.4440583132499983,562.94836263575
1702105737979,-22.43631024052002,0.5403645532499983,564.1143026357499
1702105737992,-22.482889850520017,0.6011447632499983,565.2765456357499
1702105738006,-22.52809650052001,0.6255933532499983,566.4362146357499
1702105738020,-22.571871150520018,0.6156902552499983,567.5949576357499
1702105738034,-22.614796040520016,0.5756222152499983,568.7551736357499
1702105738048,-22.657277620520016,0.5116238152499983,569.9191726357499
1702105738062,-22.698341820520017,0.4297589552499983,571.0885616357499
1702105738076,-22.736810960520017,0.3324411052499983,572.2635066357499
1702105738090,-22.771136610520017,0.2208044052499983,573.4432226357499
1702105738104,-22.800461060520018,0.0964892052499983,574.6267106357499
1702105738119,-22.824093790520017,-0.0375734947500016,575.8128316357498
1702105738131,-22.841624680520017,-0.1767959947500016,577.0020716357499
1702105738145,-22.85332478052001,-0.3162854947500016,578.1953716357499
1702105738159,-22.858628342520017,-0.4515118947500016,579.3934376357499
1702105738173,-22.85688584752002,-0.5805318947500017,580.59564263575
1702105738187,-22.84709844652001,-0.7033427947500017,581.8005406357499
1702105738201,-22.82980745652002,-0.8227248947500018,583.00528163575
1702105738215,-22.80505975652002,-0.9404373947500018,584.20725963575
1702105738229,-22.77317983652002,-1.0552326947500017,585.4038796357501
1702105738243,-22.73525106652001,-1.1644588947500016,586.5940706357501
1702105738257,-22.692437236520018,-1.2652929947500016,587.7774546357501
1702105738271,-22.64706138652002,-1.3507837047500015,588.9546286357502
1702105738286,-22.60341981652002,-1.3939634547500015,590.1309916357502
1702105738298,-22.56242356652002,-1.3699717147500017,591.3109366357502
1702105738312,-22.52534712652002,-1.3011680547500015,592.5031706357502
1702105738326,-22.49253040652002,-1.2218305947500014,593.6947486357502
1702105738340,-22.46484811652002,-1.1538235847500014,594.8780986357502
1702105738354,-22.44285635652002,-1.1016534747500013,596.0544236357503
1702105738367,-22.42812908652002,-1.0563238147500014,597.2213236357503
1702105738380,-22.42140088952002,-0.9953523047500014,598.3794646357503
1702105738394,-22.42395735852002,-0.9028900747500014,599.5311336357503
1702105738408,-22.43899762852002,-0.7758315747500014,600.6794536357503
1702105738423,-22.46727613852002,-0.6240519747500014,601.8233516357503
1702105738438,-22.50896442852002,-0.4524371747500014,602.9627286357503
1702105738451,-22.56165415852002,-0.2595648747500014,604.0991446357503
1702105738465,-22.62384921852002,-0.0508249747500013,605.2345416357504
1702105738478,-22.693652008520026,0.1587357252499986,606.3688306357503
1702105738492,-22.769157798520023,0.3540090252499986,607.5016486357504
1702105738506,-22.849077278520024,0.5241254252499986,608.6335076357503
1702105738520,-22.932247258520025,0.6657551252499986,609.7655026357503
1702105738534,-23.017999228520026,0.7783809252499986,610.8991186357503
1702105738547,-23.105614958520025,0.8602992552499986,612.0360716357502
1702105738561,-23.194456148520025,0.9130827852499986,613.1768296357502
1702105738575,-23.284358148520024,0.9331593352499986,614.3224466357502
1702105738590,-23.374755068520024,0.9200992252499988,615.4732926357502
1702105738603,-23.465288298520026,0.8776001652499986,616.6294676357502
1702105738618,-23.555736748520022,0.8095104152499986,617.7912496357502
1702105738631,-23.64672757852002,0.7184095352499986,618.9596446357502
1702105738645,-23.739154068520023,0.6069389352499986,620.1346636357503
1702105738659,-23.834179218520024,0.4774315352499986,621.3164846357503
1702105738674,-23.932644508520024,0.3325186352499986,622.5045526357503
1702105738688,-24.035520408520025,0.1761567352499986,623.6980616357503
1702105738701,-24.142928108520024,0.0129107352499986,624.8961946357502
1702105738715,-24.255401408520022,-0.1542790647500013,626.0981676357502
1702105738729,-24.373895708520024,-0.3230100647500014,627.3049366357502
1702105738742,-24.499081608520022,-0.4887590647500014,628.5171966357502
1702105738757,-24.631496108520025,-0.6482807647500014,629.7345586357502
1702105738770,-24.771540708520025,-0.8022045647500013,630.9563756357502
1702105738784,-24.918251508520022,-0.9520510647500012,632.1802546357502
1702105738797,-25.070702008520023,-1.0957543647500014,633.4048876357502
1702105738812,-25.227969508520022,-1.2261879647500014,634.6300096357503
1702105738826,-25.388440708520022,-1.3353071647500014,635.8566266357503
1702105738840,-25.550796108520025,-1.3972570747500015,637.0858396357503
1702105738854,-25.713156608520023,-1.3870609047500015,638.3210256357503
1702105738868,-25.872983108520025,-1.3159751447500017,639.5677676357503
1702105738882,-26.026831408520025,-1.2238773247500017,640.8169226357503
1702105738895,-26.171526608520026,-1.1368015847500017,642.0557946357503
1702105738909,-26.304978008520024,-1.0603238847500016,643.2821226357503
1702105738923,-26.424270108520023,-0.9758931847500016,644.4961196357502
1702105738937,-26.529113008520024,-0.8593917847500017,645.7003766357502
1702105738951,-26.620468148520025,-0.7035071847500016,646.9001586357502
1702105738965,-26.699953508520025,-0.5219915847500016,648.0919566357502
1702105738978,-26.769990318520023,-0.3329694847500016,649.2702186357502
1702105738999,-26.832335088520026,-0.1429627847500016,650.4337196357502
1702105739006,-26.886751328520024,0.0481319152499983,651.5817606357502
1702105739019,-26.935414618520024,0.2418825152499983,652.7189986357503
1702105739032,-26.978356748520024,0.4375454152499983,653.8448326357503
1702105739046,-27.018146968520025,0.6275991152499983,654.9606066357503
1702105739060,-27.056484838520024,0.8036880152499983,656.0672546357503
1702105739074,-27.093974368520023,0.9573699152499984,657.1651876357503
1702105739089,-27.130895378520023,1.0825018152499983,658.2548316357503
1702105739103,-27.167348508520025,1.1776388052499984,659.3373106357503
1702105739116,-27.203529858520024,1.2415402752499984,660.4131836357503
1702105739130,-27.239941888520026,1.2740411652499983,661.4837566357503
1702105739145,-27.277385118520023,1.2793033112499983,662.5515436357502
1702105739159,-27.316330808520025,1.2601385512499983,663.6187426357502
1702105739173,-27.356402388520024,1.2208951812499982,664.6872626357502
1702105739187,-27.395612788520022,1.163194301249998,665.7574166357502
1702105739201,-27.432533978520027,1.090414121249998,666.8296876357502
1702105739215,-27.466228698520027,1.004920591249998,667.9042866357503
1702105739229,-27.496589388520025,0.907716111249998,668.9807126357503
1702105739242,-27.523749558520024,0.8012375112499981,670.0586706357502
1702105739256,-27.546307118520023,0.6886729112499981,671.1375666357502
1702105739270,-27.562485978520023,0.5721622112499981,672.2177006357502
1702105739284,-27.570984676520023,0.4520235112499981,673.2994696357503
1702105739297,-27.571313994020024,0.3294142112499981,674.3826256357503
1702105739311,-27.564150954020025,0.2076103112499981,675.4673386357503
1702105739326,-27.549679874020025,0.0897970112499981,676.5531936357503
1702105739339,-27.528385054020024,-0.0231550887500018,677.6392436357503
1702105739353,-27.500887674020024,-0.1321383887500019,678.7235726357503
1702105739366,-27.467506754020025,-0.2368571887500019,679.8050926357503
1702105739381,-27.429747004020022,-0.3334044187500019,680.8843216357503
1702105739395,-27.391008984020026,-0.4181724787500018,681.9617686357503
1702105739409,-27.355509984020024,-0.4869398087500018,683.0387986357504
1702105739423,-27.327613904020023,-0.5164715387500018,684.1192856357503
1702105739437,-27.308250844020023,-0.4890422387500018,685.2060686357503
1702105739451,-27.297589504020024,-0.4214145787500019,686.3039556357503
1702105739466,-27.293147384020024,-0.3457419787500019,687.4024106357502
1702105739478,-27.291941893020024,-0.2814280987500019,688.4947076357503
1702105739492,-27.292615278320024,-0.2352731487500019,689.5792066357503
1702105739506,-27.297173089320022,-0.2048812387500019,690.6528306357503
1702105739520,-27.308972319320027,-0.1763084087500019,691.7135606357504
1702105739534,-27.331909729320028,-0.1347756487500019,692.7623636357504
1702105739548,-27.368442009320027,-0.0725713087500019,693.8026856357503
1702105739562,-27.419513609320028,0.010686811249998,694.8363676357503
1702105739575,-27.48441617932003,0.115668011249998,695.8625666357503
1702105739589,-27.561022839320028,0.2457953112499981,696.8814786357503
1702105739603,-27.64509549932003,0.3989269112499981,697.8940966357503
1702105739618,-27.732880309320027,0.5651104112499982,698.9014446357503
1702105739631,-27.821940129320023,0.7327827112499982,699.9034636357503
1702105739645,-27.910916269320023,0.8930387112499982,700.9009138357503
1702105739659,-27.998554149320025,1.0398800112499982,701.8951781357504
1702105739673,-28.084518479320025,1.1693763112499982,702.8874755357504
1702105739687,-28.168908139320024,1.2765867112499982,703.8787454357504
1702105739701,-28.251695099320024,1.3564535212499982,704.8691439357503
1702105739715,-28.333510069320024,1.4079989512499982,705.8590458357503
1702105739728,-28.414731439320025,1.431766011249998,706.8493087357502
1702105739742,-28.495594089320026,1.430181370249998,707.8412864357502
1702105739756,-28.577267909320025,1.405649680249998,708.8365979357502
1702105739770,-28.660087439320023,1.358120680249998,709.8366319357502
1702105739786,-28.74511789932002,1.286655050249998,710.8419159357502
1702105739798,-28.83350761932002,1.194089710249998,711.8520629357502
1702105739812,-28.92590428932002,1.085032610249998,712.8676589357501
1702105739826,-29.02270628932002,0.965067710249998,713.8889919357501
1702105739840,-29.12391338932002,0.838290910249998,714.9164869357502
1702105739854,-29.22968798932002,0.706357410249998,715.9499459357502
1702105739868,-29.33998778932002,0.5702847102499979,716.9885549357501
1702105739881,-29.45474448932002,0.4336378102499979,718.0324319357501
1702105739895,-29.57378998932002,0.2993789102499979,719.0819479357501
1702105739909,-29.69707918932001,0.1709798102499979,720.1380539357501
1702105739923,-29.82425358932002,0.0511645102499979,721.2013699357501
1702105739937,-29.95521428932002,-0.060176289750002,722.2717749357502
1702105739951,-30.08896098932001,-0.164109489750002,723.3489729357501
1702105739965,-30.224520789320017,-0.262816929750002,724.4313379357501
1702105739979,-30.36033638932001,-0.358100489750002,725.5170799357501
1702105739992,-30.49481248932002,-0.448168439750002,726.6037189357501
1702105740008,-30.62620898932002,-0.5179483097500021,727.69117593575
1702105740021,-30.75272108932002,-0.5431698397500021,728.7807209357501
1702105740034,-30.87235608932001,-0.5282162397500021,729.8761459357501
1702105740046,-30.982599889320017,-0.4918809197500021,730.9760049357501
1702105740061,-31.08097226932001,-0.4555434597500021,732.0713019357501
1702105740075,-31.166365039320016,-0.4316271797500021,733.1611169357501
1702105740090,-31.237991619320017,-0.4066117397500021,734.2471099357501
1702105740104,-31.295155009320016,-0.3521854597500021,735.3303139357502
1702105740118,-31.33905463932001,-0.2556553397500021,736.4166499357501
1702105740131,-31.36767923932001,-0.1213468397500021,737.5036999357501
1702105740145,-31.38086779932001,0.0285336602499979,738.5840139357501
1702105740159,-31.378215780320016,0.1799708602499979,739.6523569357502
1702105740173,-31.358912500320017,0.3267738602499979,740.7047629357502
1702105740187,-31.324128440320017,0.4731010602499979,741.7430169357502
1702105740201,-31.275047500320017,0.6249163602499979,742.7707119357502
1702105740214,-31.212476140320017,0.7809339602499978,743.7914489357503
1702105740228,-31.137400890320016,0.9304410602499978,744.8054859357503
1702105740243,-31.051348790320016,1.0624431602499975,745.8116289357503
1702105740258,-30.954590510320017,1.167922560249998,746.8097848357503
1702105740270,-30.848560310320018,1.2442752202499978,747.8021691357503
1702105740284,-30.73441881032002,1.2908351502499975,748.7907223357503
1702105740298,-30.61277431032002,1.3073098802499978,749.7778830357503
1702105740311,-30.484263710320025,1.294986670249998,750.7656452357503
1702105740326,-30.34947321032002,1.256801220249998,751.7550032357503
1702105740340,-30.20749811032002,1.195166560249998,752.7472039357503
1702105740354,-30.05750131032002,1.113182180249998,753.7424580357504
1702105740367,-29.90003201032002,1.014388640249998,754.7400129357503
1702105740381,-29.73542551032002,0.900056840249998,755.7389761357504
1702105740395,-29.56414661032002,0.7721938402499979,756.7387715357504
1702105740410,-29.38494841032002,0.6342294402499979,757.7390265357504
1702105740425,-29.19731731032002,0.4912277402499979,758.7390485357504
1702105740437,-28.99912621032002,0.3454403402499979,759.7387678357504
1702105740451,-28.78933971032002,0.1981187402499979,760.7382951357504
1702105740465,-28.56783621032002,0.0493202402499979,761.7380473357504
1702105740479,-28.33442151032002,-0.098853659750002,762.7389503357504
1702105740492,-28.08869251032002,-0.243276459750002,763.7417753357504
1702105740506,-27.82999601032002,-0.381681559750002,764.7473853357504
1702105740520,-27.55820201032002,-0.5130638597500021,765.7559643357505
1702105740534,-27.27360301032002,-0.6369455597500021,766.7672693357505
1702105740547,-26.97600981032002,-0.7529683597500021,767.7807973357504
1702105740561,-26.665046510320018,-0.8608183597500021,768.7962783357505
1702105740575,-26.34273221032002,-0.960487649750002,769.8121083357505
1702105740590,-26.01126251032002,-1.0511823797500022,770.8264093357506
1702105740603,-25.67246141032001,-1.130340509750002,771.8374833357506
1702105740616,-25.327611410320017,-1.172954509750002,772.8504303357506
1702105740631,-24.974800810320016,-1.141068449750002,773.8700333357506
1702105740644,-24.61043511032001,-1.045244569750002,774.9048103357505
1702105740658,-24.24351121032001,-0.9371213697500022,775.9410243357505
1702105740672,-23.883343110320016,-0.8491741997500022,776.9624333357505
1702105740686,-23.53204101032001,-0.7983706097500022,777.9686023357505
1702105740701,-23.19058931032001,-0.7825057897500022,778.9567093357505
1702105740714,-22.858326910320013,-0.7794713097500022,779.9244620357505
1702105740727,-22.532967810320013,-0.7642520297500023,780.8741622357505
1702105740741,-22.211854810320013,-0.7206594797500023,781.8122894357506
1702105740755,-21.894191810320013,-0.6475061997500023,782.7446785357506
1702105740769,-21.58213971032001,-0.5478034297500023,783.6687293357506
1702105740783,-21.274267010320013,-0.4262087297500023,784.5837347357507
1702105740798,-20.96701781032001,-0.2876415297500023,785.4891566357506
1702105740812,-20.65810571032001,-0.1429971297500022,786.3849516357507
1702105740825,-20.346802710320013,-0.0024150297500022,787.2702696357507
1702105740839,-20.032922210320013,0.1264068702499977,788.1468248357506
1702105740853,-19.71402531032001,0.2410386702499977,789.0164576357506
1702105740867,-19.38759001032001,0.3422835702499976,789.8819594357506
1702105740881,-19.051283310320013,0.4290040002499977,790.7449021357505
1702105740895,-18.70500781032001,0.4975702002499976,791.6062207357505
1702105740908,-18.349794510320013,0.5453492502499977,792.4668014357505
1702105740922,-17.986011710320014,0.5731190902499977,793.3277044357505
1702105740936,-17.613286610320014,0.5817254032499978,794.1906748357505
1702105740951,-17.231365010320015,0.5729452492499978,795.0573628357505
1702105740965,-16.839722510320016,0.5467884392499978,795.9292991357505
1702105740977,-16.439395110320017,0.5050427192499978,796.8070732357505
1702105740991,-16.030162410320017,0.4465894492499977,797.6918509357505
1702105741006,-15.613161510320015,0.3736291892499978,798.5830181357505
1702105741020,-15.188574210320017,0.2879928692499978,799.4808448357505
1702105741033,-14.756509110320016,0.1941725392499977,800.3848689357505
1702105741048,-14.316673810320015,0.0945039592499977,801.2952404357505
1702105741062,-13.869624110320018,-0.0097595407500022,802.2121556357505
1702105741075,-13.417153610320018,-0.1177115407500022,803.1351148357505
1702105741089,-12.959353610320017,-0.2279938407500022,804.0644664357505
1702105741103,-12.496531710320015,-0.3388339407500022,804.9999806357505
1702105741118,-12.029139610320016,-0.4500493407500022,805.9411620357505
1702105741131,-11.558063610320016,-0.5624875407500023,806.8867778357505
1702105741144,-11.083539910320017,-0.6769611407500022,807.8355862357505
1702105741158,-10.604651510320016,-0.7932623407500022,808.7866439357505
1702105741172,-10.121183810320016,-0.9123598407500022,809.7390818357504
1702105741186,-9.632974610320016,-1.035286640750002,810.6912565357504
1702105741201,-9.140123210320017,-1.156403440750002,811.6406385357504
1702105741214,-8.639941610320017,-1.261068640750002,812.5858273357504
1702105741228,-8.127133810320018,-1.321785020750002,813.5296306357504
1702105741242,-7.597091410320018,-1.329533065750002,814.4727277357505
1702105741256,-7.047915510320018,-1.316779975750002,815.4125458357505
1702105741270,-6.487607510320018,-1.305735615750002,816.3361189357505
1702105741285,-5.916943410320018,-1.295152375750002,817.2407768357505
1702105741298,-5.330929110320017,-1.266087135750002,818.1244459357505
1702105741312,-4.723888210320017,-1.1964823357500018,818.9860558357504
1702105741326,-4.092150010320017,-1.081911435750002,819.8240969357505
1702105741340,-3.441650910320017,-0.940413535750002,820.6341342357505
1702105741354,-2.777102310320017,-0.7836092357500019,821.4100954357505
1702105741368,-2.101795010320017,-0.6135176357500018,822.1522223357505
1702105741381,-1.415435410320017,-0.4266884357500018,822.8631953357504
1702105741395,-0.7184215103200171,-0.2243009357500018,823.5468293357504
1702105741409,-0.0132416103200171,-0.0172183357500018,824.2039812357505
1702105741424,0.6955935896799829,0.1814403642499981,824.8360625357504
1702105741437,1.4043924896799829,0.3593907642499981,825.4434514357505
1702105741451,2.110716089679983,0.5108688642499981,826.0296054357505
1702105741465,2.813050489679984,0.6343130642499981,826.5978126357504
1702105741478,3.512027589679984,0.7313910942499982,827.1515509357504
1702105741492,4.209201389679984,0.8048775942499982,827.6942515357504
1702105741506,4.906045489679983,0.8562181342499982,828.2283746357504
1702105741521,5.603696489679983,0.8846993942499981,828.7547528357503
1702105741534,6.302603589679983,0.8879034202499981,829.2731930357503
1702105741548,7.003054289679983,0.8673682902499982,829.7843348357503
1702105741562,7.706588989679982,0.8227003002499982,830.2865453357504
1702105741575,8.414736089679982,0.7594684702499982,830.7801223357503
1702105741592,9.129662789679982,0.6824812602499982,831.2647720357503
1702105741604,9.852932589679982,0.5956898502499982,831.7409746357503
1702105741618,10.585492389679985,0.5001491402499982,832.2087889357502
1702105741631,11.327667789679984,0.3964930402499982,832.6677271357503
1702105741645,12.080019189679984,0.2872436402499982,833.1168853357503
1702105741659,12.843493989679985,0.1748551402499982,833.5554844357504
1702105741673,13.619524789679986,0.0611629402499982,833.9844342357504
1702105741687,14.407582089679986,-0.0534994597500017,834.4050763357504
1702105741701,15.207741889679983,-0.1689316597500018,834.8177479357504
1702105741714,16.019794089679984,-0.2858587597500018,835.2228878357504
1702105741728,16.842834589679985,-0.4047519597500018,835.6204599357504
1702105741742,17.674521189679986,-0.5258653597500018,836.0112251357505
1702105741757,18.512468389679984,-0.6479372597500018,836.3951858357505
1702105741770,19.354635789679985,-0.7711421597500019,836.7713699357505
1702105741785,20.198394589679985,-0.8966802597500019,837.1393399357505
1702105741798,21.040760589679984,-1.026850859750002,837.4983847357505
1702105741811,21.885654889679984,-1.145661959750002,837.8501628357506
1702105741825,22.740589789679984,-1.203366799750002,838.1978008357505
1702105741841,23.615320389679983,-1.180997799750002,838.5417102357505
1702105741854,24.506269689679986,-1.1349717597500018,838.8833410357505
1702105741867,25.384807589679983,-1.1052595097500018,839.2196152357506
1702105741881,26.245461689679985,-1.1108281187500018,839.5530196357505
1702105741895,27.091820889679983,-1.1488735887500017,839.8855509357505
1702105741909,27.923260589679984,-1.1928338887500016,840.2123124357505
1702105741924,28.746290089679984,-1.2122094087500015,840.5314900357505
1702105741937,29.571273389679984,-1.1924774487500016,840.8461188357505
1702105741952,30.400110089679984,-1.1372654587500015,841.1575098357505
1702105741965,31.226324889679983,-1.0557319687500015,841.4640371357505
1702105741979,32.048003389679984,-0.9530939687500016,841.7644271357505
1702105741993,32.86615648967998,-0.8303879687500015,842.0570177357505
1702105742006,33.68155978967998,-0.6935756687500015,842.3414537357505
1702105742020,34.49366808967998,-0.5534481687500016,842.6179917357505
1702105742034,35.303560089679976,-0.4189318687500015,842.8875188357505
1702105742048,36.113241289679976,-0.2950003687500016,843.1515142357505
1702105742062,36.925122189679975,-0.1862375687500015,843.4101469357505
1702105742076,37.74027158967998,-0.0957891187500015,843.6643249357505
1702105742091,38.55862218967998,-0.0278786387500015,843.9151081357505
1702105742104,39.37995218967998,0.0171162212499984,844.1632767357505
1702105742118,40.204550689679984,0.0395300412499984,844.4091149357505
1702105742131,41.03359468967999,0.0413123492499984,844.6531748357505
1702105742145,41.86827598967999,0.0236638292499984,844.8957699357505
1702105742159,42.70894828967999,-0.0137356607500015,845.1376354357506
1702105742173,43.55556268967999,-0.0696239207500016,845.3792813357505
1702105742187,44.40844738967999,-0.1431861807500016,845.6202869357505
1702105742201,45.26883018967999,-0.2324547507500016,845.8599817357506
1702105742215,46.13743908967999,-0.3315733707500016,846.0979812357506
1702105742228,47.01473358967999,-0.4361072707500016,846.3346478357506
1702105742242,47.90071828967999,-0.5436124707500016,846.5708127357506
1702105742256,48.794935289679984,-0.6529989707500017,846.8076251357505
1702105742270,49.696878689679984,-0.7643895707500017,847.0469371357506
1702105742284,50.60771178967998,-0.8749172707500017,847.2896404357506
1702105742298,51.52890308967998,-0.9784796707500016,847.5364467357506
1702105742312,52.46151228967998,-1.0709387807500017,847.7863635357506
1702105742326,53.40608018967998,-1.1534377807500018,848.0386712357506
1702105742340,54.35999838967998,-1.2302182407500015,848.2933011357507
1702105742354,55.32108358967998,-1.3026678707500017,848.5506689357507
1702105742367,56.28823148967998,-1.3701438907500016,848.8108035357507
1702105742381,57.26076008967998,-1.4305607207500015,849.0728849357507
1702105742396,58.23739678967998,-1.4779164907500018,849.3361755357507
1702105742409,59.21956608967998,-1.4976703207500015,849.6000681357507
1702105742423,60.20973368967998,-1.4769633707500018,849.8623985357507
1702105742437,61.20765918967998,-1.4286595707500018,850.1196645357506
1702105742451,62.20561038967998,-1.374459260750002,850.3694253357506
1702105742464,63.19551118967998,-1.3264310607500018,850.6095793357506
1702105742478,64.17653228967998,-1.2868183007500018,850.8385245357506
1702105742492,65.15214208967998,-1.240100060750002,851.0559732357506
1702105742507,66.12592398967999,-1.164512670750002,851.2616720357506
1702105742521,67.10263038967999,-1.050594270750002,851.4561713357506
1702105742534,68.07980348967999,-0.904691570750002,851.6382944357506
1702105742548,69.05197648967999,-0.740968970750002,851.8079015357506
1702105742562,70.01507298968,-0.568297770750002,851.9639623357506
1702105742576,70.96830768967999,-0.390422670750002,852.1063872357506
1702105742589,71.91386948967998,-0.207568670750002,852.2360996357506
1702105742603,72.85535778967999,-0.0196398707500019,852.3554815357506
1702105742618,73.79504968967998,0.165988529249998,852.4668047357507
1702105742632,74.73373338967998,0.339255629249998,852.5703629357506
1702105742645,75.67194638967999,0.492264129249998,852.6660735157506
1702105742659,76.61021548967999,0.618758029249998,852.7538356957506
1702105742673,77.54943478967999,0.715067929249998,852.8340882557505
1702105742687,78.49100898968,0.779474979249998,852.9082938957505
1702105742701,79.43652858968,0.8150465392499979,852.9781087557504
1702105742714,80.38750678967999,0.8231539602499979,853.0444997757504
1702105742729,81.34547028968,0.8056078102499978,853.1079737557504
1702105742742,82.31038848968,0.7679961002499979,853.1686248057505
1702105742756,83.28262958968,0.7139342902499979,853.2253483657505
1702105742770,84.26205718968,0.6457579802499979,853.2767370357506
1702105742784,85.24752718968,0.5638430102499978,853.3212655757505
1702105742798,86.23841528968,0.4683665102499978,853.3575059557505
1702105742811,87.23373378968,0.3630620102499978,853.3846512357505
1702105742826,88.23285868968,0.2506549102499978,853.4020672757505
1702105742840,89.23633268968,0.1332215102499978,853.4096109587505
1702105742854,90.24401268968,0.0140394102499978,853.4086026397505
1702105742868,91.25597968968,-0.1048117897500021,853.4001388637505
1702105742881,92.27256868968,-0.2226822897500021,853.3843971837505
1702105742895,93.29368368967998,-0.3400185897500021,853.3598126137505
1702105742909,94.31837168967998,-0.4561248897500021,853.3260892137505
1702105742923,95.34646868967998,-0.5687968897500022,853.2829512637505
1702105742937,96.37797368967998,-0.6753663897500022,853.2304037637506
1702105742952,97.41249268967998,-0.7728323097500022,853.1687192137506
1702105742965,98.44881468967998,-0.8601299697500022,853.0984731837506
1702105742978,99.48533368967998,-0.9374783497500022,853.0206024737506
1702105742992,100.51927868967998,-1.006071989750002,852.9368054837506
1702105743006,101.54850768967998,-1.063888859750002,852.8489534037507
1702105743021,102.57743868967998,-1.088781309750002,852.7605672137506
1702105743034,103.61075168968,-1.044615069750002,852.6721293037506
1702105743048,104.65570968967998,-0.957121229750002,852.5843432537506
1702105743062,105.70192568967998,-0.862767699750002,852.4993137637506
1702105743075,106.73759068967998,-0.783735699750002,852.4175024737506
1702105743090,107.76395568967996,-0.733938789750002,852.3397639237505
1702105743104,108.78025968967998,-0.7045231497500021,852.2675334637505
1702105743118,109.78252868967998,-0.677275039750002,852.2033071837506
1702105743131,110.77343888967998,-0.636326289750002,852.1481334937506
1702105743145,111.75413948968,-0.5701026597500021,852.1051157237506
1702105743159,112.72608128967998,-0.4786250297500021,852.0756101337506
1702105743173,113.68792858967998,-0.3625176297500021,852.0599641437506
1702105743188,114.64052548968,-0.2170386297500021,852.0574265397505
1702105743201,115.58707448968,-0.0419994297500021,852.0640281357505
1702105743215,116.52947878968,0.1534801702499978,852.0769176057505
1702105743228,117.46716968968,0.3548642702499979,852.0943847357505
1702105743242,118.40123158968,0.550240570249998,852.1146062857505
1702105743257,119.33357008968,0.7314358702499979,852.1356814957505
1702105743271,120.26637718968,0.8929876702499979,852.1564082857506
1702105743285,121.20142138968,1.032735670249998,852.1757923757506
1702105743298,122.13923968968,1.147555570249998,852.1944685557506
1702105743312,123.08075878968,1.234112970249998,852.2124664057507
1702105743326,124.02636478968,1.290127120249998,852.2308136657507
1702105743340,124.97660398968,1.313092250249998,852.2499708657507
1702105743354,125.93190658968,1.305562875249998,852.2708800357507
1702105743367,126.89249028968,1.269265435249998,852.2937615457507
1702105743381,127.85871928968,1.206392985249998,852.3189283357507
1702105743396,128.83029298968,1.117475695249998,852.3476471257507
1702105743409,129.80678388968,1.006861395249998,852.3810836557507
1702105743425,130.78672838967998,0.878455195249998,852.4210376357506
1702105743437,131.76963078967998,0.735853095249998,852.4688160557506
1702105743451,132.75514968967997,0.5844818952499979,852.5236750857506
1702105743464,133.74355558967997,0.4284437952499979,852.5857311957506
1702105743479,134.73463698967998,0.2713198952499979,852.6549184357506
1702105743493,135.72872748967998,0.1154385952499978,852.7327559957506
1702105743507,136.72619908968,-0.0340579047500021,852.8198843257506
1702105743521,137.72719608968,-0.1706996047500021,852.9162948157507
1702105743534,138.73191708968,-0.2920908047500021,853.0215557157507
1702105743548,139.73924308968,-0.3989349047500021,853.1354292157506
1702105743562,140.74729308968,-0.4937263647500021,853.2574628157506
1702105743576,141.75415308968,-0.5785916947500022,853.3867548157506
1702105743591,142.75696108967998,-0.6557825047500021,853.5218438157506
1702105743603,143.75267698967997,-0.7212523147500021,853.6628510157506
1702105743617,144.74441628967998,-0.7491256247500021,853.8092786157506
1702105743631,145.73397948967997,-0.7133233747500021,853.9584887157506
1702105743645,146.73129348967996,-0.6350803547500021,854.1092385157506
1702105743659,147.72578208967997,-0.5501997047500021,854.2582292157506
1702105743673,148.70877048967998,-0.4851106447500021,854.4039104157506
1702105743687,149.68085288967998,-0.4500700847500021,854.5480248157506
1702105743701,150.64067498967998,-0.4296378947500021,854.6932002157506
1702105743714,151.58647088968,-0.396488844750002,854.8401863157507
1702105743728,152.52046218968,-0.3302393947500021,854.9889309157506
1702105743742,153.44275038968,-0.234915594750002,855.1357209157507
1702105743756,154.34724028967997,-0.125653894750002,855.2783632157507
1702105743770,155.23111908967996,-0.010081494750002,855.4175275157506
1702105743784,156.09622758967996,0.1149628052499979,855.5560427157507
1702105743798,156.94793918967994,0.2553702052499979,855.6972942157506
1702105743812,157.78964088967993,0.4078404052499979,855.8433751157506
1702105743826,158.62182538967994,0.5606134052499979,855.9960128157506
1702105743840,159.44534448967994,0.7013548052499979,856.1566869157507
1702105743854,160.26045558967994,0.8208587052499979,856.3272691157507
1702105743867,161.06733808967994,0.916322265249998,856.5078931157507
1702105743881,161.86581218967993,0.987110365249998,856.6990299157507
1702105743895,162.6574975896799,1.034878385249998,856.9011589157507
1702105743909,163.44361988967992,1.0624953652499978,857.1158013157507
1702105743923,164.22649668967992,1.0736217552499978,857.3428275157506
1702105743937,165.00728548967993,1.070573452249998,857.5822205157506
1702105743951,165.7859827896799,1.054288272249998,857.8341426157506
1702105743964,166.56270088967997,1.027655432249998,858.0968153157506
1702105743979,167.33711188967993,0.993607102249998,858.3682221157507
1702105743992,168.10927268967993,0.952625412249998,858.6470146157507
1702105744007,168.87908008967992,0.903381302249998,858.9330719157507
1702105744021,169.6459134896799,0.8471579922499981,859.2265901157507
1702105744034,170.41054698967991,0.7864771622499981,859.5278659157507
1702105744048,171.1736578896799,0.7236211922499981,859.8371264157507
1702105744063,171.93512578967992,0.6587786222499981,860.1547711157507
1702105744076,172.6947293896799,0.590269822249998,860.4802152157507
1702105744090,173.45322198967992,0.5179222022499981,860.8121263157507
1702105744103,174.21177418967991,0.444269802249998,861.1500826157506
1702105744117,174.9711181896799,0.371931252249998,861.4945928157506
1702105744132,175.73102258967992,0.3011053222499981,861.8467527157505
1702105744145,176.49159508967992,0.2297836922499981,862.2063512157505
1702105744159,177.25275158967992,0.157039482249998,862.5728378157505
1702105744173,178.01521738967992,0.084581132249998,862.9452369157506
1702105744187,178.77963218967992,0.013015842249998,863.3225485157506
1702105744201,179.5455977896799,-0.0604112877500019,863.7033335157505
1702105744216,180.3112806896799,-0.1400771577500019,864.0867639157505
1702105744229,181.0743015896799,-0.2292965377500019,864.4732259157505
1702105744242,181.8336843896799,-0.3298350377500019,864.8630327157505
1702105744257,182.58921678967988,-0.4364018377500019,865.2579988157505
1702105744270,183.34243208967987,-0.5269408377500019,865.6626008157505
1702105744284,184.09470258967988,-0.5672088577500018,866.0818948157505
1702105744299,184.84800588967988,-0.5503966677500018,866.5213591157506
1702105744312,185.59499128967988,-0.5212576877500018,866.9752792157506
1702105744326,186.32501898967988,-0.5071699177500018,867.4324357157506
1702105744340,187.03499708967988,-0.5129320287500018,867.8933851157506
1702105744354,187.7181413896799,-0.5299457487500018,868.3615220157506
1702105744367,188.3767686896799,-0.5370564987500018,868.8419452157506
1702105744381,189.01181998967988,-0.5187387187500019,869.3391982157506
1702105744396,189.62333118967987,-0.4738142487500019,869.8565018157506
1702105744409,190.21006468967988,-0.4118609887500019,870.3919619157506
1702105744423,190.77222348967987,-0.3406100187500018,870.9423667157506
1702105744437,191.3108547896799,-0.2648662087500019,871.5052256157506
1702105744451,191.83014108967987,-0.1867928287500019,872.0785951157507
1702105744465,192.33198788967988,-0.1066617487500019,872.6609322157507
1702105744478,192.82144438967987,-0.0259516987500018,873.2519449157506
1702105744492,193.3014054896799,0.0524375112499981,873.8513277157506
1702105744507,193.77437808967983,0.1248605212499981,874.4597817157506
1702105744521,194.24085658967985,0.1891438912499981,875.0789314157506
1702105744535,194.70070018967985,0.2462536412499981,875.7091861157506
1702105744548,195.15326508967985,0.2945909812499981,876.3524496157506
1702105744562,195.59729078967985,0.3307621412499981,877.0090984157506
1702105744575,196.03095568967984,0.3511387812499981,877.6797721157506
1702105744589,196.45370318967983,0.356026876249998,878.3646544157506
1702105744603,196.86469578967984,0.3465415882499981,879.0658275157506
1702105744619,197.26512138967985,0.3241596382499981,879.7834755157506
1702105744632,197.65580958967985,0.2884334382499981,880.5183120157507
1702105744645,198.03685958967984,0.2395800082499981,881.2692476157507
1702105744659,198.40804408967983,0.1797739982499981,882.0362172157508
1702105744673,198.76875338967983,0.1110162682499981,882.8185130157508
1702105744687,199.11799728967983,0.0348301482499981,883.6156484157508
1702105744701,199.45583878967983,-0.0471770317500018,884.4254472157508
1702105744714,199.78033408967983,-0.1360097417500018,885.2463154157507
1702105744729,200.09026328967985,-0.2332517717500018,886.0780962157507
1702105744743,200.38642408967985,-0.3365251717500018,886.9203001157507
1702105744756,200.66938498967983,-0.4417187717500018,887.7739000157507
1702105744771,200.93927558967985,-0.5451512717500019,888.6400221157506
1702105744785,201.19492188967985,-0.6434080017500019,889.5188677157506
1702105744798,201.4352466896798,-0.7358492717500019,890.4092527157507
1702105744812,201.6595289896798,-0.8212229317500019,891.3103099157506
1702105744826,201.8672547896798,-0.8963838517500019,892.2216259157507
1702105744840,202.0588241896798,-0.959239861750002,893.1421218157507
1702105744855,202.2361688896798,-1.0140254817500018,894.0677711157507
1702105744868,202.4010410896797,-1.0641522717500018,894.9945621157507
1702105744882,202.5571735896798,-1.097721401750002,895.9243066157507
1702105744895,202.7073740896798,-1.085053091750002,896.8629579157506
1702105744909,202.8546283896798,-1.023293401750002,897.8163714157506
1702105744923,203.0002785896798,-0.943465171750002,898.7836912157507
1702105744938,203.1459075896798,-0.869974891750002,899.7513314157507
1702105744950,203.2942790896798,-0.817843521750002,900.7185685157507
1702105744963,203.4471716896798,-0.782529951750002,901.6875942157508
1702105744978,203.6052244896798,-0.7459347117500019,902.6564734157506
1702105744992,203.76741738967985,-0.6946576617500019,903.6269848157506
1702105745007,203.9332408896798,-0.6283872917500019,904.5949871157504
1702105745021,204.1031114896798,-0.5563292017500019,905.5548930157504
1702105745034,204.2773357896798,-0.4846222717500019,906.5029831157505
1702105745048,204.4547626896798,-0.4071968617500019,907.4400335157504
1702105745062,204.63516608967976,-0.3088447017500019,908.3703744157503
1702105745075,204.8180602896797,-0.1820024017500019,909.2995494157504
1702105745091,205.0021296896797,-0.0375707017500019,910.2296099157504
1702105745105,205.18683638967977,0.1059309982499981,911.1568127157504
1702105745118,205.3721828896797,0.2352553982499981,912.0817931157504
1702105745131,205.5588690896797,0.3444099982499981,913.0057992157504
1702105745145,205.7471067896797,0.4328426782499981,913.9305587157504
1702105745159,205.93640628967967,0.4987689582499981,914.8591928157504
1702105745173,206.1256599896797,0.5416031382499982,915.7935553157504
1702105745187,206.31386978967976,0.5576403582499981,916.7350003157504
1702105745200,206.50030988967976,0.5464544182499982,917.6838742157504
1702105745214,206.6856661896797,0.5097549882499982,918.6395614157506
1702105745228,206.87206648967967,0.4484342782499982,919.6031839157506
1702105745243,207.0613945896798,0.3677534282499982,920.5749371157506
1702105745257,207.2554513896798,0.2730760682499982,921.5551387157506
1702105745271,207.4542163896798,0.1666046682499982,922.5433328157504
1702105745284,207.6585406896798,0.0489588682499982,923.5379866157506
1702105745298,207.8686184896798,-0.0784126317500017,924.5368203157506
1702105745311,208.0851446896798,-0.2147987317500017,925.5389823157506
1702105745326,208.3088994896798,-0.3571140317500018,926.5449003157504
1702105745340,208.5392913896798,-0.5007493317500018,927.5541623157504
1702105745355,208.7753368896797,-0.6417025317500018,928.5672923157506
1702105745367,209.0168953896797,-0.7757479317500018,929.5852893157506
1702105745381,209.2633181896797,-0.9003386317500017,930.6088033157506
1702105745395,209.5145287896798,-1.0123652317500018,931.6390033157506
1702105745409,209.7694453896798,-1.111881211750002,932.6751733157506
1702105745424,210.02642978967967,-1.197804271750002,933.7162173157508
1702105745436,210.2840541896797,-1.268085311750002,934.7602983157508
1702105745451,210.5398732896797,-1.313736891750002,935.8075133157508
1702105745465,210.79129738967976,-1.3106913057500018,936.8610163157508
1702105745478,211.0368459896798,-1.2449684557500018,937.9273463157508
1702105745492,211.2756424896798,-1.1336318557500018,939.0105153157508
1702105745506,211.5073086896798,-1.003527955750002,940.0973123157509
1702105745521,211.7315707896798,-0.8739753557500018,941.1805013157508
1702105745534,211.9469762896798,-0.7630479557500018,942.2549483157508
1702105745548,212.1505819896798,-0.6800196657500018,943.3146083157508
1702105745561,212.3394309896798,-0.6226246457500019,944.3563883157508
1702105745574,212.5105478896798,-0.5762820357500019,945.3829623157508
1702105745589,212.6617695896798,-0.5190264257500019,946.3997483157508
1702105745602,212.7918703896798,-0.4336801857500019,947.4145813157506
1702105745617,212.9036258896798,-0.3238164857500019,948.4300133157508
1702105745631,212.9997701596798,-0.1968929857500019,949.4402393157508
1702105745646,213.0832805396798,-0.0571680857500018,950.4427343157506
1702105745658,213.1563260996798,0.0944641142499981,951.4396102157506
1702105745672,213.2208449696798,0.2555689142499981,952.4327056157506
1702105745686,213.2781024396798,0.4199641142499981,953.4229047157506
1702105745700,213.3290462496798,0.5788484142499981,954.4108556157506
1702105745714,213.3744225996798,0.7248360142499981,955.3968574157508
1702105745729,213.4147478096798,0.8514909142499981,956.3814915157508
1702105745741,213.4502354696798,0.953392814249998,957.3656953157508
1702105745756,213.4817230196798,1.0271898242499982,958.3505859157508
1702105745769,213.5092499196798,1.0695409242499982,959.3366650157508
1702105745783,213.5313391096798,1.0791878092499982,960.3248453157506
1702105745797,213.5465838596798,1.0569089692499982,961.3169589157508
1702105745811,213.5548259186798,1.0077814792499982,962.3155324157508
1702105745825,213.5575038916798,0.937336779249998,963.3222244157508
1702105745839,213.5555719596798,0.8466569592499982,964.3381244157508
1702105745853,213.5488832956798,0.7353359592499982,965.3625074157508
1702105745867,213.53557250567985,0.6053848592499982,966.3937564157508
1702105745882,213.5135037956798,0.4599626592499982,967.4318004157508
1702105745895,213.4828262156798,0.3046677592499981,968.4772214157508
1702105745909,213.44416650567985,0.1439572592499981,969.5303634157508
1702105745923,213.39723129567983,-0.0207765407500018,970.5922294157508
1702105745937,213.34161863567985,-0.1881402407500018,971.6616594157508
1702105745951,213.27704351567985,-0.3547954407500018,972.7386164157508
1702105745965,213.20295547567983,-0.5158944407500019,973.8228444157508
1702105745978,213.11967201567984,-0.6658739407500018,974.9142164157508
1702105745992,213.02827161567984,-0.8021431407500018,976.0119854157508
1702105746006,212.92872367567983,-0.922334140750002,977.1147474157508
1702105746020,212.82261957567985,-1.026132440750002,978.2197114157508
1702105746034,212.71155857567985,-1.104002640750002,979.3254604157506
1702105746047,212.59790637567983,-1.1319489107500018,980.4320444157506
1702105746062,212.48391837567985,-1.094090360750002,981.5438104157506
1702105746076,212.37124497567984,-1.0097019507500018,982.6664034157508
1702105746089,212.2617346756798,-0.9159576807500018,983.7877134157508
1702105746103,212.1577272756798,-0.8368096007500019,984.9002664157508
1702105746117,212.0609917156798,-0.7749339007500019,986.0041014157508
1702105746131,211.97246703567976,-0.7122209307500019,987.0975284157508
1702105746145,211.89084282567973,-0.6313216207500019,988.1848704157508
1702105746158,211.8171918856798,-0.5227725207500019,989.2695914157508
1702105746173,211.7532338356798,-0.3937615207500019,990.3489664157509
1702105746186,211.7003617456798,-0.2539687207500019,991.4184444157509
1702105746200,211.6595141456798,-0.1093497207500019,992.4742464157508
1702105746214,211.6295480356798,0.040328079249998,993.5143324157508
1702105746228,211.6073344256798,0.197336879249998,994.5412824157509
1702105746242,211.5890472556798,0.3582299792499981,995.5588714157508
1702105746256,211.5732494056797,0.5144054792499981,996.5675304157508
1702105746270,211.5589109156797,0.6577485792499982,997.5678164157508
1702105746284,211.5456856356797,0.7810154792499981,998.5605142157508
1702105746298,211.5326167956798,0.8770615992499982,999.5469186157508
1702105746311,211.5198797656797,0.9436713292499982,1000.5287198157506
1702105746327,211.50748222567967,0.9789824992499984,1001.5082418157506
1702105746339,211.49531043567976,0.9810448022499982,1002.4877420157504
1702105746353,211.48326051567977,0.9533452122499982,1003.4685619157506
1702105746367,211.47246675567976,0.9006691622499983,1004.4518901157504
1702105746381,211.46381441667967,0.8279797322499982,1005.4377017157506
1702105746395,211.4580251576797,0.7366456322499982,1006.4260840157506
1702105746409,211.45512815167973,0.6284351322499983,1007.4159932157506
1702105746424,211.45511667778973,0.5035505322499982,1008.4064295157508
1702105746437,211.4586472857897,0.3637836322499982,1009.3975289157509
1702105746451,211.4661004497897,0.2137904322499982,1010.3895074157508
1702105746464,211.4785452297897,0.0589845322499982,1011.3831703157508
1702105746478,211.49600918978973,-0.0957567677500017,1012.3788015157508
1702105746491,211.5193242797897,-0.2493269677500017,1013.3768576157509
1702105746506,211.5478477697897,-0.4021617677500018,1014.3764670157508
1702105746521,211.58163910978973,-0.5545532677500018,1015.3771100157508
1702105746534,211.6205390397897,-0.7055503677500018,1016.3784270157508
1702105746547,211.66471390978973,-0.8519789677500018,1017.3804720157508
1702105746561,211.71393796978973,-0.9892762677500018,1018.3827210157508
1702105746575,211.7666327097897,-1.1137572677500018,1019.3842390157508
1702105746589,211.8209933797897,-1.223939367750002,1020.3831491157508
1702105746605,211.8744213597897,-1.319342467750002,1021.3773310157508
1702105746617,211.9230313897897,-1.3870486277500018,1022.3699453157508
1702105746631,211.9616656697897,-1.4005256677500018,1023.3642257157506
1702105746645,211.98477242978973,-1.3649849477500018,1024.3659087157507
1702105746659,211.9893997837897,-1.311298767750002,1025.371551715751
1702105746673,211.97970966578973,-1.264697187750002,1026.3687714157506
1702105746687,211.96153382578973,-1.239269217750002,1027.354743215751
1702105746701,211.9364514857897,-1.235854482750002,1028.3253585157506
1702105746714,211.9030529957897,-1.242580016750002,1029.2810372157503
1702105746728,211.85748877578973,-1.235384929750002,1030.2241953157504
1702105746742,211.79920356578967,-1.192092289750002,1031.1605765157503
1702105746756,211.7280470457897,-1.110628049750002,1032.0965022157504
1702105746770,211.64633920578973,-0.999706149750002,1033.0272245157505
1702105746784,211.5576166757897,-0.8633188497500021,1033.9468659157503
1702105746797,211.4636973957897,-0.702259149750002,1034.8560338157506
1702105746811,211.36630112578973,-0.5205913497500021,1035.7565476157506
1702105746825,211.2669118857897,-0.3265121497500021,1036.6482746157506
1702105746840,211.16682448578973,-0.129316249750002,1037.5338048157505
1702105746854,211.06572698578967,0.0650146502499979,1038.4153071157505
1702105746867,210.96395428578973,0.2515089502499979,1039.2940931157505
1702105746881,210.8623325857897,0.4231301502499979,1040.1704503157505
1702105746895,210.7624794557897,0.5740298502499979,1041.0439480157504
1702105746909,210.6654784357897,0.6995815502499978,1041.9137251157504
1702105746923,210.5714227657897,0.7994929702499978,1042.7787768157505
1702105746938,210.47900851578973,0.8763621802499978,1043.6380513157503
1702105746951,210.3870999757897,0.9369604502499976,1044.4933895157506
1702105746964,210.2966949857897,0.9865366502499976,1045.3457772157506
1702105746978,210.20938686578967,1.0284067502499976,1046.1965344157506
1702105746992,210.12408321578977,1.0629587002499976,1047.0453967157507
1702105747006,210.0379577057897,1.0905857102499976,1047.8912122157508
1702105747019,209.9483079957897,1.1128036502499976,1048.733911015751
1702105747034,209.85446212578967,1.1311087602499976,1049.574744915751
1702105747047,209.7571970057897,1.1444630002499976,1050.4142196157509
1702105747061,209.65648160578976,1.1484346362499975,1051.2506538157509
1702105747077,209.55046670578977,1.1408855662499977,1052.0822517157508
1702105747090,209.43697010578973,1.1216256862499976,1052.9069631157508
1702105747104,209.31607770578967,1.0942118762499975,1053.7251720157508
1702105747117,209.18870290578977,1.0664095562499976,1054.5392158157508
1702105747131,209.05524890578977,1.0502616262499975,1055.3522914157509
1702105747145,208.91564830578977,1.0562622202499976,1056.167636215751
1702105747160,208.76860750578976,1.0901457602499975,1056.987869615751
1702105747173,208.6130318057897,1.1516345602499976,1057.812345115751
1702105747187,208.4479562057897,1.2442940602499974,1058.641333015751
1702105747200,208.27320580578976,1.3739345602499975,1059.477413315751
1702105747214,208.0882059057897,1.5505000602499974,1060.324868615751
1702105747228,207.8940434057897,1.7791937602499974,1061.184994615751
1702105747242,207.69248360578973,2.0592887602499976,1062.0565928157512
1702105747256,207.4864921057897,2.3805642602499977,1062.9338456157511
1702105747270,207.28131230578973,2.742993460249997,1063.8096222157512
1702105747284,207.0804604057897,3.1502437602499973,1064.6800903157512
1702105747298,206.88510750578973,3.597875060249997,1065.5422348157513
1702105747312,206.69602300578973,4.072059160249998,1066.3897112157513
1702105747325,206.5146679057897,4.559842060249998,1067.2173102157512
1702105747339,206.3428642057897,5.050861860249998,1068.0235643157512
1702105747353,206.1840821057897,5.539691860249998,1068.805101715751
1702105747367,206.04044310578973,6.023478460249998,1069.558625615751
1702105747381,205.9117049057897,6.498649460249999,1070.284239115751
1702105747396,205.7977677057897,6.964931360249999,1070.981381015751
1702105747409,205.69745580578973,7.425545860249999,1071.6511283157508
1702105747423,205.6088317957897,7.885451760249999,1072.2962546157507
1702105747437,205.53045960578973,8.350041460249999,1072.9198739157507
1702105747450,205.4603313157897,8.820724460249998,1073.5273100157508
1702105747464,205.3977043757897,9.293237760249998,1074.121733715751
1702105747478,205.3425175357897,9.761054360249998,1074.704821915751
1702105747492,205.2940124657897,10.217394260249998,1075.278168315751
1702105747506,205.2512741857897,10.655127060249995,1075.843503015751
1702105747520,205.21291081578968,11.068055560249997,1076.402984015751
1702105747534,205.17758150578968,11.452923060249995,1076.958326415751
1702105747547,205.14418923578967,11.806238060249996,1077.5103775157509
1702105747563,205.11258494578968,12.123780660249995,1078.0598900157509
1702105747576,205.08240160578967,12.401454060249996,1078.6065896157509
1702105747589,205.05402179578968,12.640129560249996,1079.1504610157508
1702105747603,205.02796927578967,12.840537260249995,1079.6912495157508
1702105747618,205.00443892578969,13.001992360249996,1080.2277924157509
1702105747632,204.98296339578968,13.127378160249997,1080.759472715751
1702105747646,204.96308879578967,13.220031920249994,1081.286621215751
1702105747659,204.94548787578967,13.285583420249994,1081.810783315751
1702105747673,204.93101444578969,13.331527660249996,1082.334299215751
1702105747688,204.92071358578968,13.364509030249994,1082.8586028157508
1702105747700,204.9150601367897,13.389939280249994,1083.3840489157508
1702105747715,204.91491913358965,13.412940690249991,1083.9101130157508
1702105747729,204.92158360658965,13.440494650249994,1084.4357501157508
1702105747742,204.93633473658969,13.478437480249994,1084.9612379157509
1702105747756,204.96057551658967,13.532119110249994,1085.487121515751
1702105747770,204.99578557658967,13.606015350249994,1086.013945015751
1702105747784,205.04284080658968,13.703742750249994,1086.541848015751
1702105747798,205.1020234765897,13.835765950249996,1087.071870715751
1702105747812,205.1709344665897,14.013174050249994,1087.604762315751
1702105747826,205.2492105565897,14.241745850249991,1088.140888215751
1702105747839,205.3371066065897,14.521926350249991,1088.6783306157508
1702105747853,205.43524919658967,14.858837050249994,1089.216912515751
1702105747867,205.5424030965897,15.261749750249994,1089.760255015751
1702105747881,205.6545573965897,15.722850250249994,1090.308179515751
1702105747894,205.7667629965897,16.212674150249995,1090.849156415751
1702105747908,205.8745770965897,16.711810850249996,1091.369827415751
1702105747922,205.97397087658973,17.204393750249995,1091.8655675157509
1702105747937,206.0611940765897,17.685324250249995,1092.3386243157508
1702105747952,206.1341363065897,18.16206755025,1092.7951371157508
1702105747965,206.19182921658967,18.640333250249995,1093.2386223157507
1702105747978,206.23511214658973,19.11811805025,1093.6696279157509
1702105747992,206.2655880665897,19.59022215025,1094.0863870157507
1702105748006,206.28409794658967,20.05330445025,1094.4868539157508
1702105748020,206.2939378955897,20.509758650249992,1094.873261415751
1702105748035,206.2981793295897,20.96538875025,1095.2488253157508
1702105748048,206.3009201485897,21.426050750249992,1095.6187970157507
1702105748062,206.3049375285897,21.89427275025,1095.9885646157506
1702105748076,206.3101732115897,22.36819405025,1096.3611423157506
1702105748091,206.3151892075897,22.839839850249994,1096.7379760157503
1702105748103,206.31842776058969,23.300557250249994,1097.1201054157505
1702105748117,206.32011603558968,23.74205915025,1097.5096847157504
1702105748131,206.32011943119167,24.158249050249992,1097.9079707157505
1702105748146,206.31833617319168,24.544441250249992,1098.3162962157503
1702105748159,206.31453617219168,24.896420850249992,1098.7344909157505
1702105748172,206.30832990419168,25.20960225025,1099.1625054157505
1702105748187,206.2996125091917,25.479705850249992,1099.5997699157506
1702105748200,206.2891031491917,25.70728665024999,1100.045101715751
1702105748214,206.2777567091917,25.89236395024999,1100.4978016157506
1702105748228,206.2659236991917,26.03643825024999,1100.9577994157507
1702105748242,206.2545617991917,26.14118835024999,1101.4262878157508
1702105748256,206.2434980491917,26.21431204024999,1101.9041138157509
1702105748270,206.23252066919167,26.26229729024999,1102.3925075157508
1702105748284,206.22165290919168,26.29125563024999,1102.8916700157508
1702105748298,206.20991275919167,26.305895880249988,1103.4013283157508
1702105748312,206.1964479991917,26.308861390249987,1103.919394615751
1702105748326,206.17978823919165,26.301512959249987,1104.444831615751
1702105748339,206.15898816919164,26.289406989249983,1104.976623615751
1702105748355,206.13285409919163,26.280190960249985,1105.513982515751
1702105748367,206.10042805919164,26.282301149249985,1106.0574546157509
1702105748381,206.06177357919165,26.300839719249986,1106.606576015751
1702105748395,206.01581885919165,26.342392479249984,1107.161177115751
1702105748409,205.9601406491917,26.413304829249984,1107.720396215751
1702105748423,205.8939351791917,26.515908129249983,1108.282820915751
1702105748437,205.81742690919165,26.655813629249984,1108.8469032157511
1702105748451,205.73114144919165,26.838226129249986,1109.410065515751
1702105748464,205.63522054919164,27.065540629249984,1109.9670338157512
1702105748478,205.53063784919163,27.341543629249983,1110.5113407157512
1702105748492,205.41905584919164,27.689501729249983,1111.0463425157511
1702105748506,205.3043316491916,28.116067929249983,1111.5821843157512
1702105748520,205.18806314919163,28.606238429249984,1112.1258429157513
1702105748534,205.07398504919163,29.131472129249985,1112.6636186157514
1702105748547,204.96594824919163,29.665818529249982,1113.1855415157513
1702105748562,204.8677171991916,30.192929929249985,1113.6892614157514
1702105748576,204.7818461791916,30.708773229249985,1114.1742233157513
1702105748591,204.7083582891916,31.218383929249985,1114.6430913157512
1702105748604,204.6481818691916,31.725467729249985,1115.0981762157512
1702105748618,204.6032957991916,32.22935862924999,1115.5389520157512
1702105748631,204.5740141791916,32.72587482924999,1115.962579315751
1702105748645,204.5580779091916,33.21202052924999,1116.367948515751
1702105748658,204.5502954461916,33.69054072924999,1116.756733315751
1702105748672,204.5461806991916,34.16751612924999,1117.133111615751
1702105748686,204.5423845031916,34.64571582924999,1117.501797715751
1702105748701,204.5365288561916,35.121127229249986,1117.8658634157512
1702105748714,204.5285246691916,35.58496662924998,1118.226979515751
1702105748728,204.5188906131916,36.02733492924998,1118.586250115751
1702105748741,204.5080672831916,36.43974302924998,1118.945090715751
1702105748755,204.4970541731916,36.81523552924998,1119.3050970157508
1702105748769,204.4864796331916,37.14846172924998,1119.6670662157508
1702105748783,204.4772493691916,37.43241442924998,1120.0310174157507
1702105748796,204.4690391681916,37.66565032924998,1120.3967905157508
1702105748810,204.4615948321916,37.845965029249975,1120.7646152157508
1702105748826,204.4541398891916,37.97258112924997,1121.1352450157508
1702105748839,204.44686724819164,38.052588559249976,1121.5094504157507
1702105748853,204.4404357771916,38.092625399249975,1121.8893505157507
1702105748866,204.43572120819164,38.100577754249976,1122.2769545157507
1702105748880,204.4320218991916,38.08412433424998,1122.6739162157508
1702105748894,204.4272900541916,38.05018477424998,1123.0814149157509
1702105748909,204.4204790431916,38.00833657424998,1123.4989162157506
1702105748922,204.4129991531916,37.96583061424998,1123.9258446157503
1702105748936,204.4068316271916,37.92721906424998,1124.3622641157506
1702105748950,204.4039430441916,37.894071904249984,1124.8073955157506
1702105748963,204.4055914041916,37.86844908424998,1125.2608015157507
1702105748977,204.4122144771916,37.85709507424998,1125.7227732157507
1702105748992,204.4243711471916,37.87353040424998,1126.1948243157508
1702105749005,204.4426080871916,37.928579704249984,1126.6785088157508
1702105749020,204.4676322671916,38.02656772424999,1127.1749295157508
1702105749033,204.5005069771916,38.16758662424999,1127.6828156157508
1702105749046,204.5422859171916,38.34799052424999,1128.1990330157507
1702105749061,204.5948621771916,38.57271152424999,1128.7230885157508
1702105749075,204.6596466471916,38.84804862424999,1129.255459115751
1702105749089,204.7343549371916,39.17561732424999,1129.7965389157507
1702105749103,204.8162217071916,39.56629812424999,1130.3454660157506
1702105749117,204.9018032871916,40.01299802424999,1130.9001349157506
1702105749131,204.9873956971916,40.49513672424999,1131.4514278157503
1702105749145,205.0711206471916,40.99699562424999,1131.9880575157506
1702105749158,205.1503860871916,41.50525612424999,1132.502770015751
1702105749172,205.2225325171916,42.01233732424999,1132.993718415751
1702105749186,205.2851095871916,42.51820452424999,1133.4655143157506
1702105749200,205.3361450171916,43.02908732424999,1133.9236788157507
1702105749213,205.3740957971916,43.54572722424999,1134.3699968157507
1702105749228,205.3999704571916,44.059471324249984,1134.8030610157507
1702105749241,205.4146903271916,44.56170212424998,1135.2215470157507
1702105749256,205.4192118121916,45.04847752424998,1135.6253832157506
1702105749269,205.4153470161916,45.52398972424998,1136.0179294157506
1702105749283,205.4057101561916,45.993532324249976,1136.4037562157505
1702105749297,205.3918890961916,46.45893902424998,1136.7869386157504
1702105749310,205.3765600361916,46.918212124249976,1137.1710136157503
1702105749324,205.3601300661916,47.36596442424997,1137.5577607157504
1702105749339,205.3420660861916,47.797175824249976,1137.9484984157505
1702105749354,205.3217950761916,48.20556402424997,1138.3446904157504
1702105749367,205.29780379619163,48.58642902424997,1138.7474854157504
1702105749381,205.2702707861916,48.939556224249976,1139.1570786157504
1702105749394,205.2402071561916,49.26136302424997,1139.5738925157505
1702105749407,205.2092925361916,49.555701524249976,1139.9976415157505
1702105749422,205.1780226461916,49.82215992424997,1140.4290889157503
1702105749436,205.1463057561916,50.06184332424997,1140.8676904157503
1702105749450,205.1136931761916,50.27188742424997,1141.3126818157505
1702105749464,205.0797282661916,50.44825722424997,1141.7633873157504
1702105749478,205.0448985161916,50.59174102424997,1142.2193773157503
1702105749491,205.0095441461916,50.70440432424997,1142.6804368157502
1702105749505,204.9735994161916,50.79136788424997,1143.1466110157503
1702105749519,204.9366348361916,50.85977787424997,1143.6179681157505
1702105749532,204.8970502661916,50.915215544249975,1144.0949471157503
1702105749546,204.8540139161916,50.96020721424998,1144.5779610157504
1702105749560,204.8069171961916,50.99408995424998,1145.0659409157504
1702105749575,204.7541815061916,51.01925326424998,1145.5568794157505
1702105749590,204.6952168061916,51.04507603424998,1146.0504659157505
1702105749603,204.6313124561916,51.08322338424998,1146.5461875157505
1702105749617,204.5639165961916,51.14213676424998,1147.0460779157504
1702105749630,204.4925191361916,51.226373584249984,1147.5498907157505
1702105749643,204.4148899161916,51.34019938424999,1148.0567608157503
1702105749658,204.3291564961916,51.48705318424999,1148.5658584157504
1702105749672,204.2353559261916,51.67115918424999,1149.0766089157505
1702105749686,204.1359030561916,51.89276698424999,1149.5880214157503
1702105749700,204.0322515561916,52.15790268424999,1150.0978019157506
1702105749713,203.9256176561916,52.46618298424999,1150.6021761157506
1702105749728,203.8158218561916,52.83315248424999,1151.1005749157505
1702105749742,203.7033416561916,53.26385078425,1151.5975448157506
1702105749756,203.5884056561916,53.74335568425,1152.0987722157506
1702105749769,203.4726374561916,54.25068398425,1152.5965406157509
1702105749785,203.35942425619163,54.76420258424999,1153.084550615751
1702105749797,203.25303065619164,55.27109708425,1153.5609138157506
1702105749810,203.15651451619163,55.76971948425,1154.0256598157507
1702105749825,203.07155325619163,56.26520018425,1154.4809543157508
1702105749839,203.00005670619163,56.76066628425,1154.9281506157508
1702105749854,202.94341752619164,57.25312388425,1155.3671174157507
1702105749867,202.90328907619164,57.73556338425,1155.7947699157507
1702105749880,202.87778338619165,58.20316318425,1156.2099073157508
1702105749894,202.8629873161917,58.65527158425,1156.612132115751
1702105749909,202.8542455271917,59.09491128425,1157.0020212157508
1702105749922,202.84747486619167,59.522706184250005,1157.3809618157509
1702105749936,202.8395367601917,59.93735618425001,1157.751242315751
1702105749950,202.82934680019167,60.33417108425001,1158.114109215751
1702105749964,202.81635741019167,60.70759768425001,1158.471071515751
1702105749978,202.80134222019169,61.05273778425001,1158.8238999157509
1702105749992,202.78545082019167,61.367570984250015,1159.1736500157508
1702105750005,202.76904743019168,61.64935278425001,1159.5214271157508
1702105750020,202.75034756019167,61.89398008425001,1159.867512615751
1702105750033,202.7282222501917,62.10079688425001,1160.2125076157508
1702105750047,202.7022792301917,62.26921778425001,1160.557176915751
1702105750061,202.67346601019167,62.40122748425001,1160.902116415751
1702105750074,202.6440702701917,62.50284248425001,1161.2485336157508
1702105750089,202.61531007019167,62.57947943425001,1161.598144615751
1702105750103,202.58715215019168,62.63737242425001,1161.953051715751
1702105750117,202.55862675019165,62.68026412425001,1162.314556015751
1702105750130,202.52907115019164,62.71030230425001,1162.683285915751
1702105750144,202.49924008019164,62.730246764250005,1163.059938615751
1702105750158,202.47035155019165,62.74443647425,1163.445887315751
1702105750172,202.44420003019164,62.75952536425,1163.841404415751
1702105750186,202.42211887019164,62.781716404250005,1164.2469512157509
1702105750199,202.40486436019165,62.81585823425001,1164.6627667157509
1702105750213,202.39240329019165,62.86571093425001,1165.088468815751
1702105750227,202.38472695719165,62.93569842425001,1165.5241283157509
1702105750241,202.38172853519168,63.02745442425001,1165.9696310157508
1702105750256,202.3838721141917,63.14232002425001,1166.4234528157508
1702105750268,202.3916749251917,63.28220432425001,1166.8835692157509
1702105750282,202.40529924519169,63.45549402425001,1167.3507628157508
1702105750297,202.42391474519167,63.67756642425001,1167.8280154157508
1702105750310,202.4460894851917,63.95433552425001,1168.3168492157508
1702105750325,202.4703826651917,64.29003142425002,1168.8164961157509
1702105750339,202.49677587519167,64.68679582425001,1169.322886215751
1702105750353,202.52491143519168,65.12848122425001,1169.832585915751
1702105750366,202.55402041519167,65.60350152425,1170.338470515751
1702105750380,202.58209859519167,66.10228282425001,1170.833813115751
1702105750394,202.60628726519167,66.61087992425001,1171.3151527157509
1702105750408,202.62396815519168,67.11856222425001,1171.780386215751
1702105750422,202.63220927019168,67.62025002425001,1172.230153815751
1702105750436,202.6299650441917,68.11599612425002,1172.667323015751
1702105750450,202.6160618941917,68.60598822425001,1173.093967315751
1702105750464,202.59026024419168,69.08725822425001,1173.5102304157508
1702105750477,202.55336478419167,69.55685922425,1173.9161722157507
1702105750491,202.5058702341917,70.01236092425,1174.3114042157508
1702105750506,202.44845025419167,70.45502452425,1174.6968851157508
1702105750519,202.3824826741917,70.89044652425001,1175.075396715751
1702105750533,202.31098493419165,71.32435562425,1175.449663515751
1702105750547,202.23714714419165,71.76007262425,1175.8234850157507
1702105750561,202.16344764419165,72.19750392425,1176.2002168157508
1702105750577,202.09040020419164,72.63228322425,1176.5819861157509
1702105750589,202.0175827041916,73.05862022425,1176.969689115751
1702105750602,201.94458418419163,73.47016462425,1177.363756215751
1702105750617,201.87081670419164,73.85997732425,1177.764327415751
1702105750631,201.79572736419163,74.22330612425,1178.170136515751
1702105750644,201.71888380419165,74.55545052425,1178.580282715751
1702105750658,201.64043130419165,74.85248292425001,1178.9939950157511
1702105750672,201.56001484419164,75.11210682425,1179.410945515751
1702105750686,201.47840786419164,75.33476102425,1179.8319730157511
1702105750700,201.39627227419163,75.52254412425,1180.2578312157511
1702105750713,201.3147884641916,75.68104172425001,1180.6891669157512
1702105750727,201.23401184419163,75.81442432425001,1181.126493615751
1702105750741,201.15365842419163,75.92569492425001,1181.570176115751
1702105750755,201.07270804419164,76.01858111425001,1182.020470415751
1702105750769,200.98996998419165,76.09650757425001,1182.477827115751
1702105750783,200.90454338419164,76.16310052425001,1182.9421758157514
1702105750797,200.81624718419164,76.22454773425001,1183.4127924157517
1702105750811,200.72446497419165,76.28899949425,1183.8894360157517
1702105750824,200.62868080419165,76.36687553425001,1184.3734577157516
1702105750838,200.52728830419164,76.46628855425001,1184.8652748157515
1702105750852,200.41945350419164,76.58934455425002,1185.3640192157516
1702105750866,200.30580620419164,76.73570625425002,1185.8672353157517
1702105750879,200.18733950419164,76.90780635425001,1186.3732043157515
1702105750894,200.06408230419163,77.11014925425002,1186.8808494157515
1702105750907,199.9365730041916,77.34329665425003,1187.3877594157516
1702105750921,199.8062678041916,77.60721185425002,1187.8906204157515
1702105750935,199.6741018041916,77.90818175425002,1188.3878231157514
1702105750949,199.5398161041916,78.27056405425002,1188.8827161157517
1702105750963,199.4058376041916,78.69596055425002,1189.3815216157514
1702105750977,199.2761575041916,79.15859485425003,1189.8814302157514
1702105750990,199.1574004041916,79.63901095425003,1190.3671725157517
1702105751006,199.0566910041916,80.12114875425003,1190.8349638157515
1702105751019,198.9768007941916,80.59960505425003,1191.2881303157517
1702105751032,198.9175822641916,81.08067385425004,1191.7284129157515
1702105751045,198.8767956641916,81.57003585425004,1192.1587752157516
1702105751060,198.8541041741916,82.06463545425004,1192.5806291157517
1702105751073,198.8496146111916,82.55769795425003,1192.9922249157516
1702105751088,198.8627926811916,83.04446875425003,1193.3910464157516
1702105751101,198.8886977311916,83.52276675425003,1193.7774833157516
1702105751116,198.9211501411916,83.99319835425003,1194.1533027157516
1702105751131,198.9550217611916,84.45588535425003,1194.5206174157515
1702105751144,198.9867588111916,84.91001705425003,1194.8821646157514
1702105751157,199.0145361211916,85.35238715425004,1195.2396103157514
1702105751171,199.0379736811916,85.77876485425004,1195.5950025157515
1702105751185,199.0570373311916,86.18227035425004,1195.9501986157516
1702105751200,199.0728543411916,86.55676305425004,1196.3073195157515
1702105751214,199.0867831811916,86.89823945425005,1196.6670793157514
1702105751227,199.1007960511916,87.20285125425005,1197.0300051157517
1702105751240,199.1157714311916,87.46797255425005,1197.3971022157514
1702105751255,199.1324425411916,87.69346725425005,1197.7694382157513
1702105751268,199.1503966011916,87.87826595425005,1198.148688315751
1702105751282,199.1680643611916,88.02547845425005,1198.535098815751
1702105751296,199.1841553911916,88.13637405425006,1198.9278708157512
1702105751310,199.1988493811916,88.21390731425005,1199.3268948157513
1702105751325,199.2131745311916,88.26489635425006,1199.7321312157512
1702105751338,199.22831741119165,88.29789762425006,1200.1453244157512
1702105751351,199.24412332119164,88.32290737425005,1200.5681550157512
1702105751365,199.26046847119164,88.34554978425005,1201.0025348157512
1702105751379,199.27721299119165,88.36771241425005,1201.4488770157511
1702105751393,199.2952280911917,88.39019022425005,1201.904991415751
1702105751408,199.31670518119165,88.41688789425005,1202.370150615751
1702105751421,199.3427137811917,88.45456428425005,1202.8435302157511
1702105751435,199.37455342119165,88.51137296425006,1203.3260138157511
1702105751451,199.41269810119164,88.59418781425006,1203.8194213157512
1702105751463,199.45788053119165,88.70338331425006,1204.3230080157512
1702105751476,199.51079036119165,88.83992191425006,1204.8353292157512
1702105751491,199.57169795119165,89.01235251425005,1205.3564071157512
1702105751505,199.6406420911917,89.23043131425005,1205.8853416157513
1702105751519,199.7167765911917,89.49111111425006,1206.419966415751
1702105751533,199.79853585119167,89.78675931425006,1206.9541551157513
1702105751547,199.8842896111917,90.12906981425006,1207.4854686157512
1702105751561,199.9738609211917,90.52876531425004,1208.0138761157511
1702105751574,200.06599368119169,90.98267221425006,1208.541150815751
1702105751589,200.16140801119167,91.47201301425004,1209.061242715751
1702105751602,200.26048403119168,91.98171591425005,1209.567504115751
1702105751617,200.3601378111917,92.49911441425004,1210.0596298157511
1702105751630,200.4554983911917,93.01723401425004,1210.5380858157512
1702105751643,200.5421380911917,93.53259381425003,1211.0059061157513
1702105751659,200.6167063511917,94.04468321425004,1211.4667442157513
1702105751672,200.6775034711917,94.55185641425004,1211.9226467157514
1702105751686,200.7248648411917,95.04987931425003,1212.3749305157514
1702105751699,200.7590854411917,95.53398741425003,1212.823141515751
1702105751713,200.7805633411917,96.00180731425004,1213.2668369157514
1702105751727,200.7896767511917,96.45371701425005,1213.7063082157513
1702105751741,200.7868865721917,96.89349371425004,1214.1427351157513
1702105751755,200.7747715121917,97.32534171425004,1214.5781910157514
1702105751769,200.7550923221917,97.75102791425005,1215.0141474157513
1702105751783,200.7297137921917,98.16776791425004,1215.4520483157512
1702105751797,200.7003878421917,98.57071661425005,1215.8926017157512
1702105751810,200.6686062521917,98.95509001425005,1216.336822615751
1702105751824,200.6356932621917,99.31747191425004,1216.785153515751
1702105751839,200.6015082521917,99.65533501425004,1217.238576615751
1702105751853,200.5649468221917,99.96881881425004,1217.696747515751
1702105751866,200.5254391721917,100.25992641425005,1218.158844615751
1702105751880,200.4824283121917,100.52574841425005,1218.625257915751
1702105751894,200.4353187221917,100.76619651425004,1219.096242415751
1702105751909,200.3845841521917,100.98448851425005,1219.573363015751
1702105751923,200.3307516621917,101.18492051425004,1220.058457215751
1702105751936,200.2742379721917,101.37042481425006,1220.5525078157511
1702105751950,200.2146770521917,101.53983961425006,1221.055880715751
1702105751964,200.15164086219173,101.69090801425006,1221.5675237157511
1702105751977,200.0849785621917,101.82199051425006,1222.086428515751
1702105751991,200.01403498219173,101.93370921425006,1222.611769215751
1702105752005,199.9394283021917,102.02875225425004,1223.142840315751
1702105752019,199.86092666219173,102.10739156425004,1223.6798045157511
1702105752034,199.7782467321917,102.17158251425003,1224.222803115751
1702105752047,199.69059426219167,102.22467445425004,1224.772541715751
