time,rotate_x,rotate_y,rotate_z,angularVelocity_x,angularVelocity_y,angularVelocity_z,velocity_x,velocity_y,velocity_z,acceleration_x,acceleration_y,acceleration_z,position_x,position_y,position_z
2023-12-09 07:08:47.657000192,0.1473637,-0.0002401043,0.008262674,0.008678141,-0.003121563,0.00950723,0.001812018,0.00114542,0.003376857,0.001812018,0.00114542,0.003376857,-0.02456245,1.804594,-0.003504181
2023-12-09 07:08:47.668000000,0.1475436,-0.0006639212,0.008024533,0.003441119,-0.003701794,-0.002457666,-0.00164912,-0.0002750581,0.004730979,0.000162898,0.0008703619,0.008107836,-0.02472284,0.01542687,-0.002695513
2023-12-09 07:08:47.681999872,0.1474872,-0.0006888788,0.007864682,0.001278928,-0.005430236,-0.005324832,-0.00211273,-0.0005277125,0.004536001,-0.001949832,0.0003426494,0.012643837,-0.02478437,0.015389,-0.002642554
2023-12-09 07:08:47.703000064,0.1472176,-0.0005005654,0.007881061,-0.005986521,0.0002364087,-0.005619809,-0.002106902,-0.0008961741,0.004502806,-0.004056734,-0.0005535246999999,0.017146643,-0.02478831,0.01532997,-0.002616835
2023-12-09 07:08:47.720999936,0.1471044,-0.0006054267,0.008004385,-0.008172975,-0.0004853815,5.655785e-05,-0.002424701,-0.0007287517,0.004760377,-0.006481435,-0.0012822763999999,0.02190702,-0.02482755,0.01532677,-0.002537727
2023-12-09 07:08:47.740999936,0.1473266,-0.0006640106,0.007573053,0.0001875732,-0.007708454,-0.01026489,-0.0027359,-0.0003709405,0.005075348,-0.009217335,-0.0016532168999999,0.026982368,-0.02487872,0.01532166,-0.002428537
2023-12-09 07:08:47.756999936,0.1473232,-0.0004660133,0.007487954,0.0003902809,-0.001761899,-0.01282948,-0.002641207,-0.000124714,0.005222704,-0.011858542,-0.0017779308999999,0.032205072,-0.0248944,0.01531602,-0.002374528
2023-12-09 07:08:47.773999872,0.1473441,-0.0005620625,0.007566579,0.001355575,-0.003361312,-0.005838262,-0.002851243,5.568479e-05,0.005362658,-0.014709785,-0.0017222461099999,0.03756773,-0.02492115,0.01531888,-0.002311512
2023-12-09 07:08:47.790999808,0.1473504,-0.0005847365,0.007723357,0.001363358,-0.001827261,0.000378304,-0.002635273,0.0006287933,0.005441934,-0.017345058,-0.0010934528099999,0.043009664,-0.02494738,0.01536657,-0.002233012
2023-12-09 07:08:47.808000000,0.1472474,-0.0006213821,0.007701241,-0.002923062,-0.002982921,-0.0004324979,-0.002502569,0.001074291,0.005222999,-0.019847627,-1.916180999999976e-05,0.048232663,-0.02498751,0.01540621,-0.002162262
2023-12-09 07:08:47.824000000,0.147223,-0.0005784445,0.007412241,-0.002935707,-0.005533791,-0.01079664,-0.002726269,0.0008812863,0.004785544,-0.022573896,0.00086212449,0.053018207,-0.02503295,0.01537962,-0.002125599
2023-12-09 07:08:47.840000000,0.1470283,-0.0004865807,0.006969605,-0.008217113,-0.006126851,-0.01834502,-0.002706886,0.0008905986,0.004134396,-0.0252807819999999,0.00175272309,0.057152603,-0.02506881,0.01534604,-0.002109611
2023-12-09 07:08:47.857000192,0.1470975,-0.0006245747,0.006924728,-0.00300346,-0.009640359,-0.01858412,-0.002561306,0.0009888208,0.003526902,-0.0278420879999999,0.00274154389,0.060679505,-0.02510738,0.01535989,-0.002075293
2023-12-09 07:08:47.871000064,0.1473274,-0.0005348809,0.006930995,0.006635316,-0.006839145,-0.01488265,-0.002411261,0.001243907,0.003237757,-0.030253349,0.00398545089,0.063917262,-0.02514547,0.01539042,-0.002045506
2023-12-09 07:08:47.885999872,0.1475675,-0.000450803,0.006947001,0.0131644,-0.002376412,-0.01818748,-0.002239755,0.001440065,0.002989806,-0.032493104,0.00542551589,0.066907068,-0.02517567,0.01541038,-0.002027877
2023-12-09 07:08:47.900999936,0.1476987,-0.0001950376,0.006681331,0.01639788,-0.001422048,-0.01841173,-0.002117376,0.0008896103,0.002619815,-0.03461048,0.00631512619,0.069526883,-0.02520211,0.01537186,-0.002034449
2023-12-09 07:08:47.915000064,0.1475945,-0.0001805983,0.006667218,0.006978187,0.004776469,-0.016655,-0.001750786,0.0003738286,0.002358827,-0.0363612659999999,0.00668895479,0.0718857099999999,-0.02522241,0.01536064,-0.002021273
2023-12-09 07:08:47.930000128,0.1474113,-8.358248e-05,0.006691282,-0.004657271,0.008451479,-0.01206462,-0.001641281,-0.000556479,0.001732566,-0.038002547,0.00613247579,0.073618276,-0.02526784,0.01535302,-0.002024853
2023-12-09 07:08:47.944999936,0.1472236,-1.905486e-06,0.006688106,-0.01210274,0.009172464,-0.01004108,-0.001496939,-0.001359481,0.0009183189,-0.039499486,0.00477299479,0.0745365949,-0.02530596,0.01533346,-0.002043041
2023-12-09 07:08:47.959000064,0.1469363,0.0002021268,0.006689888,-0.01629407,0.01161655,-0.009546115,-0.001099986,-0.001705413,0.0004934599,-0.040599472,0.00306758179,0.0750300548,-0.02530037,0.0152891,-0.00206418
2023-12-09 07:08:47.973999872,0.1470211,0.0004011802,0.006372598,-0.01194142,0.01203973,-0.02064764,-0.0008350759,-0.001235122,-4.730309e-05,-0.0414345479,0.00183245979,0.07498275171,-0.02529787,0.01525323,-0.002094087
2023-12-09 07:08:47.988000000,0.1472492,0.0003942475,0.006473117,-0.002342886,0.01307044,-0.01978876,-0.0008904703,-0.000388645,-0.0004439929,-0.0423250182,0.00144381479,0.07453875881,-0.02532215,0.01529638,-0.002118033
2023-12-09 07:08:48.002000128,0.1473917,0.0006821733,0.00646331,0.00724502,0.01538696,-0.01373931,-0.0007448018,0.0002954018,-0.0007874425,-0.04306982,0.00173921659,0.07375131631,-0.02534515,0.01534265,-0.002162966
2023-12-09 07:08:48.016000000,0.1474265,0.0007642321,0.006388647,0.01146323,0.01425529,-0.01343775,-0.0003592952,0.0008563733,-0.001049538,-0.0434291152,0.00259558989,0.07270177831,-0.02534033,0.01537611,-0.002196059
2023-12-09 07:08:48.029999872,0.1475894,0.0009559263,0.006125074,0.01473606,0.01651458,-0.01728505,0.00023575,0.0008151646,-0.001339255,-0.0431933652,0.00341075449,0.07136252331,-0.02530116,0.0153636,-0.002242273
2023-12-09 07:08:48.044000000,0.1475283,0.001037098,0.006290801,0.0104015,0.01453461,-0.01240695,0.0003206654,0.0007313127,-0.001718211,-0.0428726998,0.00414206719,0.06964431231,-0.02527228,0.01537864,-0.002292861
2023-12-09 07:08:48.058000128,0.1476879,0.001148708,0.006193907,0.01041028,0.014017,-0.01448541,0.0009470058,7.678386e-05,-0.002062845,-0.041925694,0.00421885105,0.06758146731,-0.02524888,0.01537421,-0.002334476
2023-12-09 07:08:48.072000000,0.1475561,0.001246413,0.006198459,0.001815771,0.01163895,-0.01173529,0.00170316,-0.0005370427,-0.002367966,-0.040222534,0.00368180835,0.06521350131,-0.02521329,0.01536884,-0.002378933
2023-12-09 07:08:48.085999872,0.1474271,0.001248837,0.006169067,-0.005768454,0.00690884,-0.009500924,0.002051306,-0.001117047,-0.002544499,-0.0381712279999999,0.00256476135,0.06266900231,-0.02517809,0.01534222,-0.002415933
2023-12-09 07:08:48.100000000,0.1473458,0.001286097,0.006216506,-0.007945501,0.006952748,-0.005124771,0.002534538,-0.001886451,-0.002630946,-0.0356366899999999,0.00067831035,0.06003805631,-0.02513072,0.01530109,-0.002455042
2023-12-09 07:08:48.114000128,0.1472991,0.001349729,0.00618621,-0.006874899,0.006665486,-0.006148988,0.002841114,-0.002292263,-0.00249666,-0.0327955759999999,-0.00161395265,0.05754139631,-0.02508834,0.01526717,-0.002487306
2023-12-09 07:08:48.128000000,0.1472564,0.001409553,0.006246747,-0.005810899,0.008698517,-0.002245132,0.003136964,-0.002416586,-0.00219068,-0.0296586119999999,-0.00403053865,0.05535071631,-0.02505427,0.01525768,-0.002509709
2023-12-09 07:08:48.141999872,0.1472092,0.001413599,0.006331517,-0.005891202,0.00765453,0.002411025,0.002910912,-0.002296271,-0.001897835,-0.0267476999999999,-0.00632680965,0.05345288131,-0.02503423,0.01525709,-0.002525321
2023-12-09 07:08:48.156000000,0.147088,0.001505667,0.006456271,-0.01008314,0.01162652,0.004705308,0.003164097,-0.002349257,-0.00154169,-0.0235836029999999,-0.00867606665,0.05191119131,-0.02497517,0.01522086,-0.002536845
2023-12-09 07:08:48.171000064,0.1469285,0.001559887,0.00647337,-0.0143409,0.00992988,0.001796185,0.003305874,-0.002362664,-0.0014898,-0.0202777289999999,-0.01103873065,0.05042139131,-0.02491524,0.01517939,-0.002551761
2023-12-09 07:08:48.184000000,0.1468352,0.001674719,0.006561279,-0.01744108,0.0149031,0.003846408,0.003584893,-0.002268141,-0.001397845,-0.0166928359999999,-0.01330687165,0.04902354631,-0.02485817,0.01515269,-0.002572439
2023-12-09 07:08:48.198999808,0.1467033,0.001644997,0.006601794,-0.01440951,0.0083667,0.004376499,0.003092553,-0.001911096,-0.001327759,-0.0136002829999999,-0.0152179676499999,0.04769578731,-0.02485212,0.0151445,-0.00257538
2023-12-09 07:08:48.212999936,0.1467355,0.001761844,0.006484746,-0.006843509,0.007970998,-0.005359569,0.003270475,-0.001367648,-0.0009412558,-0.0103298079999999,-0.01658561565,0.04675453151,-0.02482902,0.0151367,-0.002571066
2023-12-09 07:08:48.226000128,0.1467008,0.001765948,0.006467029,-0.00586376,0.004842812,-0.004586436,0.003102761,-0.0008971829,-0.0004303739,-0.0072270469999999,-0.01748279855,0.04632415761,-0.02478495,0.01511984,-0.002553673
2023-12-09 07:08:48.240999936,0.146652,0.001809681,0.006406146,-0.005874068,0.003301629,-0.006408193,0.003085739,-0.0007968732,7.764584e-05,-0.0041413079999999,-0.01827967175,0.04640180345,-0.02473742,0.01509385,-0.002530972
2023-12-09 07:08:48.255000064,0.146536,0.00188926,0.006375412,-0.009007045,0.005445266,-0.006961713,0.003088838,-0.0009428798,0.0004805128,-0.0010524699999999,-0.01922255155,0.04688231625,-0.02470575,0.01508146,-0.002522242
2023-12-09 07:08:48.268000000,0.1463492,0.001951648,0.006367085,-0.01536757,0.006885176,-0.006267142,0.002930518,-0.0007674159,0.0009588216,0.001878048,-0.01998996745,0.04784113785,-0.02469048,0.01508735,-0.002510672
2023-12-09 07:08:48.282000128,0.146258,0.001979532,0.006402519,-0.01435968,0.006583631,-0.002886135,0.002598407,-0.001147503,0.001392072,0.004476455,-0.02113747045,0.04923320985,-0.02466984,0.01507017,-0.002488246
2023-12-09 07:08:48.296000000,0.1461463,0.002064843,0.006465921,-0.01433284,0.009409453,-0.000276049,0.002568662,-0.00146275,0.002127646,0.007045117,-0.02260022045,0.05136085585,-0.02461501,0.0150374,-0.002448115
2023-12-09 07:08:48.309999872,0.1460267,0.002031207,0.006643495,-0.01751734,0.01128366,0.002542193,0.002570645,-0.001719108,0.002834828,0.009615762,-0.02431932845,0.05419568385,-0.02456135,0.0150104,-0.002392758
2023-12-09 07:08:48.323000064,0.1458135,0.002178799,0.006694414,-0.01963974,0.01286627,0.004331256,0.002377487,-0.002074143,0.003498599,0.011993249,-0.02639347145,0.05769428285,-0.02454656,0.01498521,-0.002340256
2023-12-09 07:08:48.338000128,0.1457015,0.002306797,0.006803192,-0.01962135,0.01415387,0.00511488,0.002167733,-0.002276311,0.004025856,0.014160982,-0.02866978245,0.06172013885,-0.02453995,0.01496718,-0.002283596
2023-12-09 07:08:48.351000064,0.145542,0.002343921,0.006787654,-0.0227979,0.01551531,0.005861457,0.001871264,-0.002620339,0.004563176,0.016032246,-0.03129012145,0.06628331485,-0.0245302,0.0149089,-0.002212595
2023-12-09 07:08:48.364999936,0.145128,0.002462845,0.006804953,-0.02911618,0.01595584,0.002405449,0.001601796,-0.002921715,0.004771287,0.017634042,-0.03421183645,0.07105460185,-0.02451527,0.01482758,-0.00215258
2023-12-09 07:08:48.379000064,0.1447968,0.002520394,0.007097273,-0.03241166,0.01521834,0.008037285,0.001065755,-0.003187787,0.005053723,0.018699797,-0.0373996234499999,0.07610832485,-0.02451319,0.01476681,-0.002085336
2023-12-09 07:08:48.392999936,0.1447445,0.002611594,0.006956743,-0.03136217,0.01034388,0.001512557,0.0004712306,-0.00293085,0.005517218,0.0191710276,-0.0403304734499999,0.08162554285,-0.02453785,0.01472601,-0.002007456
2023-12-09 07:08:48.407000064,0.1446419,0.002715932,0.006756385,-0.03014513,0.01193,-0.005434124,0.0001574843,-0.002593758,0.006423257,0.0193285119,-0.0429242314499999,0.08804879985,-0.02456959,0.01469091,-0.001907207
2023-12-09 07:08:48.420999936,0.1443362,0.002784561,0.006983063,-0.0281036,0.01056546,-0.001791444,-0.0006935544,-0.002663896,0.006982219,0.0186349575,-0.0455881274499999,0.09503101885,-0.02460416,0.01464368,-0.001807569
2023-12-09 07:08:48.435000064,0.144306,0.002804799,0.007153722,-0.027081,0.01457544,0.006052989,-0.001154591,-0.002496215,0.007738875,0.0174803665,-0.04808434245,0.10276989385,-0.02462105,0.01458342,-0.001689135
2023-12-09 07:08:48.448000000,0.1440394,0.002732884,0.007370996,-0.02721562,0.0157322,0.01566929,-0.001583231,-0.002381135,0.008239527,0.0158971355,-0.05046547745,0.11100942085,-0.02464692,0.01453381,-0.001563849
2023-12-09 07:08:48.461999872,0.143866,0.00283546,0.007541568,-0.03142306,0.01664575,0.01430195,-0.001766258,-0.002289056,0.00835676,0.0141308775,-0.0527545334499999,0.11936618085,-0.02467922,0.01450388,-0.001456742
2023-12-09 07:08:48.476000000,0.1434038,0.002880936,0.007513654,-0.03786331,0.01143715,0.00995619,-0.002383104,-0.002433355,0.008117789,0.0117477735,-0.0551878884499999,0.12748396985,-0.0247303,0.01445681,-0.001355967
2023-12-09 07:08:48.490000128,0.1430902,0.002782023,0.007428989,-0.04319987,0.005508889,0.002508347,-0.002874329,-0.002586024,0.00779215,0.0088734445,-0.0577739124499999,0.13527611985,-0.02477402,0.01440093,-0.001240946
2023-12-09 07:08:48.504000000,0.142803,0.002867846,0.007338977,-0.04222193,0.0005956217,0.0003456539,-0.003119014,-0.002877335,0.007465952,0.0057544305,-0.0606512474499999,0.14274207185,-0.02481499,0.01433666,-0.001140458
2023-12-09 07:08:48.517999872,0.1426737,0.00274137,0.007364551,-0.038016,-0.005083136,-0.004859993,-0.003259793,-0.002723938,0.007247741,0.0024946375,-0.06337518545,0.14998981285,-0.02486223,0.01429757,-0.00103528
2023-12-09 07:08:48.532000000,0.1425025,0.002613977,0.007250481,-0.03075476,-0.01000609,-0.001450768,-0.003796367,-0.002938956,0.006953545,-0.0013017294999999,-0.06631414145,0.15694335785,-0.02493156,0.01424209,-0.0009384354
2023-12-09 07:08:48.545000192,0.1424115,0.002432782,0.00746804,-0.0266267,-0.0127328,0.00141721,-0.004365534,-0.002900144,0.00661577,-0.0056672634999999,-0.06921428545,0.16355912785,-0.02500781,0.0142163,-0.0008498618
2023-12-09 07:08:48.559000064,0.1424242,0.00243376,0.00725666,-0.02028051,-0.01372539,0.00281045,-0.004798011,-0.002898225,0.006345819,-0.0104652744999999,-0.07211251045,0.16990494685,-0.02509118,0.01416298,-0.0007878173
2023-12-09 07:08:48.572999936,0.1424044,0.002333805,0.007320374,-0.01285072,-0.01542622,0.001094161,-0.005257506,-0.002680818,0.006014175,-0.0157227804999999,-0.07479332845,0.17591912185,-0.02517809,0.01413588,-0.0007261921
2023-12-09 07:08:48.588000000,0.142246,0.00226905,0.007293926,-0.01165463,-0.009796111,0.0020276,-0.005476638,-0.002331213,0.005600931,-0.0211994184999999,-0.07712454145,0.18152005285,-0.0252619,0.01411314,-0.0006528904
2023-12-09 07:08:48.601999872,0.1421704,0.002051603,0.007316177,-0.01290638,-0.01251352,0.009198941,-0.00624699,-0.002651199,0.004805017,-0.0274464084999999,-0.07977574045,0.18632506985,-0.02536855,0.01407704,-0.000583498
2023-12-09 07:08:48.616000000,0.141896,0.002059408,0.007236457,-0.02026417,-0.0124493,0.003624951,-0.006503647,-0.00308133,0.004469513,-0.0339500554999999,-0.0828570704499999,0.19079458285,-0.02546415,0.01402204,-0.0005229912
2023-12-09 07:08:48.628999936,0.1416427,0.001920875,0.007096088,-0.0265455,-0.01091042,-5.947919e-05,-0.006824043,-0.003523383,0.004032398,-0.0407740984999999,-0.0863804534499999,0.19482698085,-0.02557456,0.01395465,-0.0004599296
2023-12-09 07:08:48.641999872,0.1415196,0.001916511,0.007027056,-0.02432729,-0.01132237,-0.006513829,-0.007134689,-0.003260574,0.003845365,-0.0479087874999999,-0.08964102745,0.19867234585,-0.02568779,0.01391097,-0.0004048402
2023-12-09 07:08:48.656000000,0.141455,0.001771109,0.007059322,-0.01814799,-0.01401841,0.001808687,-0.007651638,-0.002493813,0.003830031,-0.0555604254999999,-0.0921348404499999,0.20250237685,-0.02581128,0.013909,-0.0003430176
2023-12-09 07:08:48.670000128,0.141501,0.001683695,0.007034763,-0.01181079,-0.01672774,0.0002851926,-0.007639991,-0.001862971,0.003842289,-0.0632004165,-0.09399781145,0.20634466585,-0.02592013,0.0139102,-0.000285001
2023-12-09 07:08:48.684999936,0.1414442,0.001524573,0.006763724,-0.008721483,-0.02466599,-0.005582138,-0.00781177,-0.001778578,0.003589089,-0.0710121864999999,-0.09577638945,0.20993375485,-0.02603523,0.013872,-0.000227906
2023-12-09 07:08:48.697999872,0.1413131,0.00141314,0.006433294,-0.01288215,-0.02664425,-0.0150229,-0.007889703,-0.001738104,0.003456459,-0.0789018894999999,-0.09751449345,0.21339021385,-0.02614903,0.01382057,-0.0001700344
2023-12-09 07:08:48.712000000,0.1412469,0.001353547,0.006218002,-0.0128393,-0.02906902,-0.02104982,-0.008057229,-0.002033019,0.003250046,-0.0869591184999999,-0.09954751245,0.21664025985,-0.0262665,0.01376684,-0.0001257339
2023-12-09 07:08:48.726000128,0.1410395,0.001166953,0.005874981,-0.0159812,-0.0303697,-0.0273512,-0.008087384,-0.001767354,0.003071961,-0.0950465024999999,-0.10131486645,0.21971222085,-0.02638655,0.01373448,-8.793693e-05
2023-12-09 07:08:48.740000000,0.1409889,0.00107158,0.005712609,-0.01598638,-0.03014302,-0.02630627,-0.008319038,-0.001554215,0.002904992,-0.1033655404999999,-0.10286908145,0.22261721285,-0.02651438,0.01371353,-5.987848e-05
2023-12-09 07:08:48.753999872,0.1409146,0.0009488054,0.005487343,-0.01695462,-0.02400476,-0.02328946,-0.008423539,-0.001571731,0.002755313,-0.1117890795,-0.10444081245,0.22537252585,-0.02664572,0.0136795,-1.597698e-05
2023-12-09 07:08:48.768000000,0.1407998,0.001092738,0.00531469,-0.01357654,-0.01679239,-0.02486799,-0.008356191,-0.001905053,0.002384047,-0.1201452705,-0.10634586545,0.22775657285,-0.02677368,0.01363427,3.025547e-06
2023-12-09 07:08:48.782000128,0.1407334,0.001184318,0.005207136,-0.01447434,-0.01076155,-0.02729195,-0.008249825,-0.001848749,0.001823002,-0.1283950955,-0.10819461445,0.22957957485,-0.02688907,0.01360221,3.084191e-06
2023-12-09 07:08:48.796000000,0.1406329,0.001290098,0.005164238,-0.01539665,-0.002540836,-0.02472926,-0.007793614,-0.001901288,0.001158996,-0.1361887095,-0.11009590245,0.23073857085,-0.02697949,0.01356759,-2.294622e-05
2023-12-09 07:08:48.809999872,0.1403298,0.001388473,0.005199156,-0.01754818,0.0003833866,-0.01664181,-0.007562747,-0.002080423,0.0003591955,-0.1437514565,-0.11217632545,0.23109776635,-0.02707208,0.01353133,-6.221008e-05
2023-12-09 07:08:48.824000000,0.1402238,0.001407957,0.005047307,-0.02178539,0.00300691,-0.01505183,-0.006934183,-0.002006383,-0.000247551,-0.1506856395,-0.11418270845,0.23085021535,-0.02715354,0.01350438,-7.351825e-05
2023-12-09 07:08:48.839000064,0.1400189,0.001535749,0.005048769,-0.01963964,0.005957898,-0.01131041,-0.005986784,-0.002364613,-0.0007635568,-0.1566724235,-0.11654732145,0.23008665855,-0.02721664,0.01347229,-9.884953e-05
2023-12-09 07:08:48.852000000,0.1399794,0.001473613,0.004890975,-0.02081161,0.0009871034,-0.009147262,-0.005308691,-0.002178523,-0.001385615,-0.1619811145,-0.11872584445,0.2287010435499999,-0.02728196,0.01345425,-0.000137601
2023-12-09 07:08:48.865999872,0.1397976,0.001462512,0.004954551,-0.02296643,0.0002219924,-0.007903483,-0.004086575,-0.001754626,-0.002099614,-0.1660676895,-0.12048047045,0.2266014295499999,-0.02732137,0.01346537,-0.0002046388
2023-12-09 07:08:48.880000000,0.139678,0.001218313,0.004795675,-0.01998224,-0.007271504,-0.001894939,-0.003344673,-0.001646525,-0.002814083,-0.1694123625,-0.12212699545,0.22378734655,-0.02736247,0.01345195,-0.0002578156
2023-12-09 07:08:48.894000128,0.1395943,0.001093065,0.004872432,-0.02013308,-0.01455124,-0.0003316319,-0.002389739,-0.001354471,-0.003356699,-0.1718021015,-0.12348146645,0.22043064755,-0.02738761,0.01344957,-0.0003030171
2023-12-09 07:08:48.907000064,0.1394393,0.0009338837,0.004764965,-0.01275825,-0.01930537,-0.001461575,-0.001220453,-0.001586921,-0.00387615,-0.1730225545,-0.1250683874499999,0.21655449755,-0.02739251,0.01342027,-0.0003509108
2023-12-09 07:08:48.921999872,0.1393684,0.0007076059,0.004857439,-0.01607329,-0.02333979,0.004845424,-0.0004610055,-0.001357291,-0.004293269,-0.17348356,-0.12642567845,0.21226122855,-0.02738833,0.01341931,-0.0004056934
2023-12-09 07:08:48.935000064,0.1393439,0.0005210545,0.004781804,-0.011814,-0.02342309,0.004886335,0.0002339297,-0.00121975,-0.004673003,-0.1732496303,-0.12764542845,0.20758822555,-0.0273755,0.01340599,-0.0004668522
2023-12-09 07:08:48.948999936,0.1392802,0.0003025718,0.004786914,-0.01077919,-0.02470323,0.00406858,0.0005409552,-0.0006758123,-0.005217951,-0.1727086751,-0.1283212407499999,0.20237027455,-0.02736319,0.01340574,-0.0005491396
2023-12-09 07:08:48.963000064,0.1392264,0.000193825,0.004809814,-0.009729808,-0.02361432,0.009295159,0.0005678919,-0.0002464127,-0.005798604,-0.1721407832,-0.1285676534499999,0.19657167055,-0.02734886,0.01340074,-0.0006579191
2023-12-09 07:08:48.976999936,0.1391327,2.207793e-05,0.004713681,-0.00967861,-0.02131499,0.00989643,0.000638991,-0.0002640185,-0.006370609,-0.1715017922,-0.1288316719499999,0.19020106155,-0.02733346,0.0133808,-0.0007665286
2023-12-09 07:08:48.991000064,0.1390659,6.951392e-06,0.004795977,-0.01059757,-0.01400777,0.008338789,0.0007100307,-0.0007912591,-0.006812661,-0.1707917615,-0.1296229310499999,0.18338840055,-0.02732776,0.01335865,-0.0008820185
2023-12-09 07:08:49.009999872,0.1388015,5.565025e-05,0.004915256,-0.01586605,-0.009679828,0.01285641,0.0001270798,-0.001775891,-0.007448736,-0.1706646817,-0.1313988220499999,0.1759396645499999,-0.02734363,0.01328919,-0.001120065
2023-12-09 07:08:49.023000064,0.1387168,-0.0001336485,0.005038311,-0.01684905,-0.005255272,0.01301815,-0.0002205992,-0.001659765,-0.007531255,-0.1708852809,-0.1330585870499999,0.16840840955,-0.02734958,0.01327443,-0.001221071
2023-12-09 07:08:49.036999936,0.138859,-0.000103265,0.004969984,-0.002930956,-0.002910031,0.004899431,-0.0003272074,-0.0009803035,-0.007252022,-0.1712124883,-0.1340388905499999,0.16115638755,-0.02734903,0.01327155,-0.001320957
2023-12-09 07:08:49.051000064,0.1392088,-5.731359e-05,0.004752697,0.01306329,-0.004391805,-0.005673038,-0.0007153798,-0.0001579576,-0.006712822,-0.1719278681,-0.13419684815,0.15444356555,-0.02735604,0.01326564,-0.001405005
2023-12-09 07:08:49.065999872,0.1392861,-1.398847e-06,0.004766357,0.01206133,-0.0008040722,-0.004249719,-0.0009347464,0.0009257868,-0.006561689,-0.1728626145,-0.13327106135,0.1478818765499999,-0.0273586,0.01329225,-0.001499948
2023-12-09 07:08:49.080000000,0.1392904,3.887713e-05,0.004814404,0.007851013,0.002035299,-0.00158411,-0.001095232,0.001296115,-0.0066064,-0.1739578465,-0.13197494635,0.1412754765499999,-0.02736418,0.01331008,-0.001593795
2023-12-09 07:08:49.094000128,0.1390966,-2.810732e-05,0.004995571,-0.003897883,0.001956744,0.007150978,-0.001304404,0.001214183,-0.006978319,-0.1752622505,-0.13076076335,0.1342971575499999,-0.02737087,0.01334094,-0.001674264
2023-12-09 07:08:49.107000064,0.1387812,-1.275912e-06,0.005012508,-0.01663438,0.002812989,0.004774805,-0.001330746,0.00115168,-0.00743593,-0.1765929965,-0.12960908335,0.1268612275499999,-0.02737224,0.0133605,-0.001768974
2023-12-09 07:08:49.121999872,0.1385872,3.277324e-05,0.004900412,-0.01981119,0.001550699,-0.001500407,-0.001683609,0.001699482,-0.007735449,-0.1782766055,-0.12790960135,0.1191257785499999,-0.02739638,0.01338195,-0.001892242
2023-12-09 07:08:49.135000064,0.1387232,0.0001285169,0.00482789,-0.008045474,0.003778714,-0.005230749,-0.001864169,0.002335986,-0.007768829,-0.1801407745,-0.12557361535,0.1113569495499999,-0.02742037,0.01341186,-0.002018297
2023-12-09 07:08:49.150000128,0.1391002,0.0002028625,0.004732493,0.01111999,0.003782563,-0.008481126,-0.002029498,0.002808173,-0.007569027,-0.1821702725,-0.12276544235,0.1037879225499999,-0.0274423,0.01344628,-0.002125812
2023-12-09 07:08:49.164000000,0.1395684,0.0001962651,0.004730622,0.02279818,0.002276295,-0.009240904,-0.00209641,0.003514872,-0.007239784,-0.1842666825,-0.11925057035,0.0965481385499999,-0.02745685,0.01350813,-0.002208707
2023-12-09 07:08:49.176999936,0.1397985,0.0002335366,0.004741238,0.02911325,-0.0005305259,-0.006442877,-0.002354536,0.003654476,-0.00705932,-0.1866212185,-0.11559609435,0.0894888185499999,-0.02747969,0.01355526,-0.002296347
2023-12-09 07:08:49.191000064,0.1398795,0.0003134366,0.004796205,0.02911649,-0.0003127055,-0.00538141,-0.0024079,0.003137529,-0.006978141,-0.1890291184999999,-0.11245856535,0.0825106775499999,-0.02751121,0.01357514,-0.002413108
2023-12-09 07:08:49.204999936,0.1399431,0.0003434848,0.00457109,0.0206714,0.002767601,-0.007154982,-0.002159467,0.002170942,-0.006878415,-0.1911885854999999,-0.11028762335,0.0756322625499999,-0.02753183,0.01354908,-0.002523053
2023-12-09 07:08:49.219000064,0.1398304,0.0002903845,0.004583197,0.00893318,0.001132658,-0.005744833,-0.002283052,0.0008032671,-0.006559226,-0.1934716375,-0.10948435625,0.0690730365499999,-0.02755495,0.01351622,-0.002604275
2023-12-09 07:08:49.232999936,0.1394447,0.0002893936,0.004536157,-0.01129155,0.0004747479,-0.005643991,-0.002460675,-0.0007642245,-0.006522724,-0.1959323124999999,-0.1102485807499999,0.0625503125499999,-0.02757153,0.01345818,-0.00268683
2023-12-09 07:08:49.247000064,0.1387352,0.0002449397,0.004716287,-0.03150116,0.001759163,-0.001578655,-0.0026647,-0.002493606,-0.006341543,-0.1985970124999999,-0.1127421867499999,0.0562087695499999,-0.02760254,0.01338393,-0.00276385
2023-12-09 07:08:49.260999936,0.1381976,0.0003899224,0.004490159,-0.04628339,0.006561792,-0.005898925,-0.002636509,-0.00405093,-0.005717418,-0.2012335214999999,-0.1167931167499999,0.0504913515499999,-0.02765457,0.01325928,-0.002837201
2023-12-09 07:08:49.275000064,0.1378866,0.0006676726,0.004332698,-0.05469185,0.009549482,-0.01312831,-0.002773823,-0.004812574,-0.005107989,-0.2040073445,-0.1216056907499999,0.0453833625499999,-0.02771374,0.01315128,-0.002912174
2023-12-09 07:08:49.288999936,0.137357,0.0008595027,0.004360752,-0.05775266,0.01735804,-0.01258788,-0.002696229,-0.005420643,-0.004158862,-0.2067035735,-0.1270263337499999,0.0412245005499999,-0.02774814,0.01306757,-0.002976384
2023-12-09 07:08:49.303000064,0.1369237,0.001182875,0.004924006,-0.06084431,0.02656192,-0.000362051,-0.003015511,-0.006078626,-0.003140418,-0.2097190844999999,-0.1331049597499999,0.0380840825499999,-0.02779798,0.01300684,-0.003037352
2023-12-09 07:08:49.316999936,0.1361106,0.001329903,0.005055829,-0.07035365,0.03198583,0.003988453,-0.0032148,-0.007387397,-0.002174771,-0.2129338844999999,-0.1404923567499999,0.0359093115499999,-0.02785476,0.01287771,-0.003058408
2023-12-09 07:08:49.331000064,0.1354443,0.001741221,0.005165155,-0.0862103,0.0377118,0.003782428,-0.003086461,-0.009638594,-0.001107218,-0.2160203455,-0.1501309507499999,0.0348020935499999,-0.02790715,0.01268076,-0.003071783
2023-12-09 07:08:49.344999936,0.134186,0.002016449,0.005230994,-0.1115645,0.0422051,-0.003758775,-0.002900529,-0.01134754,-0.0002911563,-0.2189208745,-0.1614784907499999,0.0345109372499999,-0.0279521,0.01247209,-0.003072332
2023-12-09 07:08:49.359000064,0.1332273,0.002357092,0.00519728,-0.1264262,0.0474163,-0.0005417199,-0.002658189,-0.01296092,0.0006188275,-0.2215790635,-0.1744394107499999,0.0351297647499999,-0.02798415,0.0122169,-0.003085356
2023-12-09 07:08:49.372999936,0.1323142,0.002547046,0.005564407,-0.1242897,0.04542996,-9.510812e-05,-0.002677283,-0.01288849,0.0015642,-0.2242563465,-0.1873279007499999,0.0366939647499999,-0.02802212,0.01204285,-0.003075839
2023-12-09 07:08:49.387000064,0.1318838,0.002810659,0.005653623,-0.1136637,0.04540723,0.001075379,-0.0021829,-0.0116747,0.002451526,-0.2264392465,-0.1990026007499999,0.0391454907499999,-0.0280274,0.011914,-0.00303722
2023-12-09 07:08:49.400999936,0.1312063,0.003054745,0.005829518,-0.1041358,0.04191943,0.0007485948,-0.002001353,-0.01091235,0.003115318,-0.2284405995,-0.2099149507499999,0.0422608087499999,-0.02804054,0.01179367,-0.002986894
2023-12-09 07:08:49.415000064,0.1304366,0.00325647,0.005784149,-0.1040626,0.04076998,-0.005510324,-0.001526059,-0.01072593,0.003658981,-0.2299666585,-0.2206408807499999,0.0459197897499999,-0.02803814,0.01164437,-0.002924383
2023-12-09 07:08:49.428999936,0.1295761,0.003611999,0.005662541,-0.1083969,0.03358111,-0.009764208,-0.001240029,-0.01124182,0.003804834,-0.2312066875,-0.2318827007499999,0.0497246237499999,-0.028037,0.01146025,-0.002869301
2023-12-09 07:08:49.441999872,0.1286024,0.00355771,0.005714963,-0.1137599,0.03042132,-0.01024694,-0.0007541766,-0.01137181,0.004075758,-0.2319608641,-0.2432545107499999,0.0538003817499999,-0.02802378,0.01130036,-0.002782923
2023-12-09 07:08:49.456999936,0.1280668,0.003731625,0.005614633,-0.1085357,0.0285195,-0.007677173,-0.0002386831,-0.01115653,0.004462508,-0.2321995472,-0.25441104075,0.0582628897499999,-0.02800318,0.01113108,-0.002716962
2023-12-09 07:08:49.470000128,0.1277195,0.003926758,0.005728989,-0.09684633,0.02849961,-0.00643654,0.0003910111,-0.009942712,0.00505576,-0.2318085361,-0.26435375275,0.0633186497499999,-0.02797098,0.01102219,-0.002641574
2023-12-09 07:08:49.484999936,0.1273114,0.003945788,0.005838185,-0.08315682,0.024411,-0.003333988,0.0007221875,-0.008644972,0.005343893,-0.2310863486,-0.27299872475,0.0686625427499999,-0.02794896,0.01094327,-0.002562856
2023-12-09 07:08:49.497999872,0.1268891,0.004139638,0.005982252,-0.07586,0.02059752,0.000630879,0.001182312,-0.007782286,0.005430448,-0.2299040366,-0.28078101075,0.0740929907499999,-0.02791716,0.0108713,-0.002507112
2023-12-09 07:08:49.512000000,0.1263775,0.004138429,0.00596461,-0.07271869,0.01841488,0.001086097,0.001850307,-0.007638267,0.005548697,-0.2280537296,-0.28841927775,0.0796416877499999,-0.02787,0.01077073,-0.002436779
2023-12-09 07:08:49.526000128,0.1255938,0.004055422,0.006021237,-0.07389899,0.01319205,0.001954642,0.002327713,-0.007733174,0.005516588,-0.2257260166,-0.29615245175,0.0851582757499999,-0.02782557,0.01065391,-0.002365589
2023-12-09 07:08:49.540000000,0.1253481,0.00394802,0.00599966,-0.07409601,0.008581849,0.007029698,0.002776507,-0.007604206,0.00571955,-0.2229495095999999,-0.30375665775,0.0908778257499999,-0.02777543,0.01053951,-0.002283109
2023-12-09 07:08:49.555000064,0.1250684,0.004017318,0.006210644,-0.0656683,0.004080003,0.006772897,0.003028926,-0.00706065,0.005964123,-0.2199205836,-0.31081730775,0.0968419487499999,-0.02772042,0.01046617,-0.002206674
2023-12-09 07:08:49.568000000,0.1247818,0.003996974,0.006399208,-0.05528182,-0.0004146172,0.01412952,0.003168168,-0.006150983,0.006448041,-0.2167524156,-0.31696829075,0.1032899897499999,-0.02766457,0.01041889,-0.002110003
2023-12-09 07:08:49.582000128,0.1245743,0.003849322,0.006392517,-0.04259393,-0.003865884,0.01490705,0.003329061,-0.005108982,0.007078627,-0.2134233546,-0.32207727275,0.1103686167499999,-0.02760249,0.01037508,-0.001994042
2023-12-09 07:08:49.595000064,0.1245419,0.003622986,0.006405291,-0.03296914,-0.00576401,0.01107271,0.003368394,-0.004216686,0.007644134,-0.2100549606,-0.32629395875,0.1180127507499999,-0.0275359,0.01033362,-0.001874702
2023-12-09 07:08:49.609999872,0.1244935,0.003667161,0.006360685,-0.02869086,-0.004815617,0.01099493,0.003200489,-0.003834421,0.008104567,-0.2068544716,-0.33012837975,0.1261173177499999,-0.02748044,0.01027624,-0.001768571
2023-12-09 07:08:49.622999808,0.1242303,0.003578776,0.006386882,-0.02749717,-0.002156583,0.007376594,0.003233404,-0.004011978,0.008652334,-0.2036210676,-0.33414035775,0.13476965175,-0.02741129,0.01021418,-0.001635545
2023-12-09 07:08:49.638000128,0.1239812,0.003560416,0.006596428,-0.03068925,-0.002066967,0.007306464,0.002890382,-0.004331017,0.008860342,-0.2007306856,-0.33847137475,0.14362999375,-0.02735945,0.01015656,-0.001513614
2023-12-09 07:08:49.652000000,0.1235322,0.003428737,0.006754854,-0.03503801,-0.002394086,0.01161095,0.002330714,-0.004588072,0.009434362,-0.1983999716,-0.34305944675,0.15306435575,-0.02733739,0.01009676,-0.001359583
2023-12-09 07:08:49.664999936,0.1233301,0.003602363,0.006670834,-0.03596256,-0.001061206,0.005978422,0.001910847,-0.004234998,0.01020677,-0.1964891246,-0.34729444475,0.16327112575,-0.02733345,0.01004339,-0.001202152
2023-12-09 07:08:49.678999808,0.1232914,0.003676126,0.006515194,-0.0337241,0.0005089676,0.00254371,0.001432696,-0.004102253,0.01123585,-0.1950564286,-0.35139669775,0.17450697575,-0.02733456,0.009980926,-0.001018617
2023-12-09 07:08:49.693000192,0.1229561,0.003623618,0.006596964,-0.03154351,0.002575177,0.002286975,0.0009527146,-0.003905305,0.01219568,-0.194103714,-0.35530200275,0.18670265575,-0.02732101,0.009946303,-0.0008333074
2023-12-09 07:08:49.707000064,0.1230195,0.00356501,0.006898557,-0.02642942,0.005528538,0.01597288,0.0004379026,-0.004014827,0.01352188,-0.1936658114,-0.35931682975,0.20022453575,-0.0273135,0.009915434,-0.0006211012
2023-12-09 07:08:49.720999936,0.1226937,0.003591612,0.00733852,-0.02872595,0.004406262,0.02256365,-8.51698e-05,-0.003561412,0.01479134,-0.1937509812,-0.36287824175,0.2150158757499999,-0.02732504,0.009907901,-0.000379433
2023-12-09 07:08:49.734999808,0.1223207,0.003494279,0.007249674,-0.0296615,0.004695326,0.01712798,-0.000284372,-0.003335446,0.0158311,-0.1940353532,-0.36621368775,0.2308469757499999,-0.02733517,0.009861324,-0.0001108852
2023-12-09 07:08:49.749000192,0.1220992,0.003410751,0.007096342,-0.03170799,0.002776386,0.01090109,-0.0006229954,-0.003212519,0.01670347,-0.1946583486,-0.36942620675,0.2475504457499999,-0.02735048,0.009814885,0.0001591766
2023-12-09 07:08:49.763000064,0.1219475,0.003468838,0.007147861,-0.03480554,0.0007613762,0.0035782,-0.0009583979,-0.003387261,0.01743069,-0.1956167465,-0.37281346775,0.2649811357499999,-0.02736673,0.009777243,0.0004156654
2023-12-09 07:08:49.776999936,0.1216684,0.003400022,0.007100338,-0.03702988,-0.003557983,0.003076313,-0.001260677,-0.003390162,0.01828423,-0.1968774234999999,-0.37620362975,0.2832653657499999,-0.02738694,0.009739308,0.0006954198
2023-12-09 07:08:49.790999808,0.121581,0.003384398,0.007044708,-0.02958056,-0.006455968,-0.0007108205,-0.001496449,-0.003261567,0.01940858,-0.1983738725,-0.37946519675,0.3026739457499999,-0.0274217,0.009697062,0.001009515
2023-12-09 07:08:49.805000192,0.1217031,0.003361767,0.007104545,-0.0220826,-0.004530734,-0.0008536785,-0.001634873,-0.002529448,0.02101938,-0.2000087455,-0.38199464475,0.3236933257499999,-0.02746684,0.009662874,0.001420274
2023-12-09 07:08:49.819000064,0.1215866,0.003257604,0.007062772,-0.01047366,-0.005436021,0.002703319,-0.002205405,-0.002289566,0.02255019,-0.2022141505,-0.38428421075,0.3462435157499999,-0.02750781,0.009670825,0.001819742
2023-12-09 07:08:49.832999936,0.1215719,0.003287498,0.006976423,-0.007141098,-0.004146438,-0.00281461,-0.002345395,-0.001780112,0.02448232,-0.2045595455,-0.38606432275,0.3707258357499999,-0.02751305,0.009626917,0.002221828
2023-12-09 07:08:49.845999872,0.1215536,0.003254589,0.007090077,-0.005088994,-0.00227292,0.003426516,-0.002427507,-0.001875088,0.02619374,-0.2069870525,-0.38793941075,0.39691957575,-0.02757783,0.009600963,0.002641631
2023-12-09 07:08:49.860000000,0.1213777,0.003161693,0.007188745,-0.01159228,-0.003630497,0.007825485,-0.002767427,-0.001651337,0.0280202,-0.2097544794999999,-0.38959074775,0.4249397757499999,-0.02762124,0.009597919,0.003093906
2023-12-09 07:08:49.874000128,0.1212021,0.003085123,0.007317221,-0.01593995,-0.003988715,0.01211951,-0.003067681,-0.001805459,0.03009909,-0.2128221604999999,-0.39139620675,0.4550388657499999,-0.02768672,0.009589759,0.003584723
2023-12-09 07:08:49.888999936,0.1211789,0.002988067,0.007307031,-0.01274428,-0.00675777,0.008244741,-0.003358574,-0.002073018,0.03244074,-0.2161807344999999,-0.39346922475,0.48747960575,-0.02774142,0.009544534,0.004123928
2023-12-09 07:08:49.901999872,0.1211637,0.002937956,0.007212044,-0.009487536,-0.008773208,0.002104923,-0.003688731,-0.001821757,0.03471926,-0.2198694654999999,-0.39529098175,0.52219886575,-0.02778966,0.009541051,0.00468557
2023-12-09 07:08:49.916000000,0.1213026,0.002852332,0.007128289,6.503653e-05,-0.01157606,-0.0005978793,-0.004171368,-0.001625019,0.03760677,-0.2240408334999999,-0.39691600075,0.55980563575,-0.02788009,0.009519642,0.005313389
2023-12-09 07:08:49.930000128,0.1213845,0.002698893,0.007250301,0.004148221,-0.01277636,0.007171756,-0.004581526,-0.001379016,0.04038318,-0.2286223594999999,-0.39829501675,0.6001888157499999,-0.0279323,0.009556783,0.005973401
2023-12-09 07:08:49.944000000,0.1213386,0.002515828,0.007205728,0.0008718134,-0.01720259,0.005579489,-0.004843369,-0.00102429,0.04323406,-0.2334657284999999,-0.39931930675,0.6434228757499999,-0.02798406,0.009534774,0.006690209
2023-12-09 07:08:49.959000064,0.1213441,0.002415463,0.006976142,0.0009746641,-0.01956712,-0.003803076,-0.005392946,-0.001151406,0.04623164,-0.2388586744999999,-0.40047071275,0.6896545157499999,-0.02810259,0.009518046,0.007437382
2023-12-09 07:08:49.972000000,0.1212092,0.002316957,0.006899858,-0.005372933,-0.01834498,-0.004057257,-0.006190734,-0.001329421,0.0490269,-0.2450494084999999,-0.40180013375,0.7386814157499999,-0.02821732,0.009466219,0.008235199
2023-12-09 07:08:49.986000128,0.1210087,0.002151862,0.006869459,-0.01389203,-0.01798468,-0.003135522,-0.007048079,-0.001570247,0.05202989,-0.2520974875,-0.40337038075,0.7907113057499999,-0.02834887,0.009442235,0.009072957
2023-12-09 07:08:50.000000000,0.1208525,0.002120283,0.006929366,-0.01705888,-0.01401131,0.001666456,-0.007466538,-0.00215651,0.05514216,-0.2595640255,-0.40552689075,0.84585346575,-0.02845983,0.009408892,0.009965027
2023-12-09 07:08:50.013999872,0.1208141,0.001981242,0.006936563,-0.01496865,-0.0136284,0.004873664,-0.008316265,-0.00247353,0.05847405,-0.2678802905,-0.40800042075,0.90432751575,-0.02862655,0.00937991,0.01091308
2023-12-09 07:08:50.028000000,0.1207569,0.001893299,0.007089058,-0.01073126,-0.01076367,0.01099403,-0.009273304,-0.002541584,0.06227491,-0.2771535945,-0.41054200475,0.96660242575,-0.02876443,0.009399467,0.01191365
2023-12-09 07:08:50.042000128,0.1207747,0.001851913,0.007074331,-0.006384682,-0.009198691,0.007596033,-0.01005073,-0.00247037,0.06622995,-0.2872043245,-0.41301237475,1.03283237575,-0.02891281,0.009323918,0.01295623
2023-12-09 07:08:50.056000000,0.1207779,0.001780117,0.007131468,-0.004243353,-0.008060611,0.00854459,-0.01094745,-0.002611733,0.07006977,-0.2981517745,-0.41562410775,1.10290214575,-0.02907909,0.009336165,0.01406186
2023-12-09 07:08:50.068999936,0.1206858,0.001694869,0.007273227,-0.007456949,-0.006201251,0.01364672,-0.01174093,-0.003072282,0.07388157,-0.3098927045,-0.41869638975,1.1767837157499998,-0.02921581,0.009271781,0.01523314
2023-12-09 07:08:50.084000000,0.1203384,0.001563881,0.007475932,-0.0170929,-0.009522755,0.01076114,-0.01262862,-0.003838687,0.07766603,-0.3225213245,-0.42253507675,1.25444974575,-0.02941888,0.009188052,0.01641585
2023-12-09 07:08:50.098000128,0.1202229,0.001503417,0.007240622,-0.02137238,-0.01033735,0.01190966,-0.01314882,-0.00512344,0.08150471,-0.3356701445,-0.42765851675,1.3359544557499998,-0.02961322,0.009074435,0.01769378
2023-12-09 07:08:50.111000064,0.1199815,0.001341784,0.007276485,-0.02565515,-0.01275313,0.008965917,-0.01396379,-0.005514647,0.0856232,-0.3496339344999999,-0.43317316375,1.4215776557499995,-0.02985067,0.009019256,0.01901383
2023-12-09 07:08:50.124999936,0.1198111,0.001248647,0.007426621,-0.02671903,-0.01123779,0.01198638,-0.01463055,-0.005702645,0.08997495,-0.3642644845,-0.43887580875,1.5115526057499995,-0.03006817,0.008950975,0.02040689
2023-12-09 07:08:50.139000064,0.1196362,0.001240212,0.007502127,-0.0224875,-0.01255197,0.01111544,-0.01528714,-0.005530273,0.09444813,-0.3795516244999999,-0.4444060817499999,1.6060007357499997,-0.0302613,0.008916545,0.0218782
2023-12-09 07:08:50.153000192,0.119491,0.001054086,0.007525279,-0.02151518,-0.01414316,0.01564431,-0.0159736,-0.004883574,0.0991568,-0.3955252244999999,-0.4492896557499999,1.7051575357499995,-0.03048949,0.008877901,0.0233798
2023-12-09 07:08:50.167000064,0.1195458,0.0007775985,0.007600456,-0.01623711,-0.0168171,0.01281929,-0.016573,-0.00435447,0.1040805,-0.4120982244999999,-0.4536441257499999,1.80923803575,-0.03074308,0.008771941,0.024959
2023-12-09 07:08:50.180999936,0.1196299,0.0005916525,0.007640606,-0.009911817,-0.01750263,0.01726781,-0.01714916,-0.004174329,0.108721,-0.4292473844999999,-0.4578184547499999,1.91795903575,-0.03100983,0.008693462,0.02659102
2023-12-09 07:08:50.196000000,0.1194191,0.0003761388,0.007831161,-0.01319372,-0.01896856,0.02174016,-0.01792643,-0.00379292,0.1135041,-0.4471738144999999,-0.4616113747499999,2.03146313575,-0.03126945,0.008650688,0.02830677
2023-12-09 07:08:50.209000192,0.1191481,0.0001285169,0.008082883,-0.01644161,-0.01937125,0.02607362,-0.01864106,-0.00380939,0.118136,-0.4658148744999999,-0.4654207647499999,2.1495991357499995,-0.03157204,0.008633325,0.03008243
2023-12-09 07:08:50.223000064,0.1190301,-0.0001986697,0.008309508,-0.01869114,-0.02150796,0.03388511,-0.01940438,-0.003774258,0.1228023,-0.4852192544999999,-0.4691950227499999,2.2724014357499995,-0.03186851,0.008574788,0.03195073
2023-12-09 07:08:50.236999936,0.1191238,-0.0004951824,0.008498307,-0.0146174,-0.02650256,0.03778773,-0.02039558,-0.00342379,0.1278857,-0.5056148344999999,-0.4726188127499999,2.40028713575,-0.03218964,0.008502433,0.03388869
2023-12-09 07:08:50.250999808,0.1191426,-0.0009237919,0.008851509,-0.006226857,-0.02954276,0.04143242,-0.02127517,-0.003311457,0.1327485,-0.5268900044999999,-0.4759302697499999,2.5330356357499992,-0.03251718,0.008504784,0.03588625
2023-12-09 07:08:50.265000192,0.1190147,-0.001197498,0.008948741,-0.008444646,-0.03210511,0.04605697,-0.02206127,-0.002559596,0.1378528,-0.5489512744999999,-0.4784898657499999,2.67088843575,-0.03283307,0.008540101,0.03797877
2023-12-09 07:08:50.279000064,0.1189461,-0.001660289,0.009228823,-0.009680459,-0.03692665,0.04991601,-0.02311574,-0.001775165,0.1428287,-0.5720670145,-0.4802650307499999,2.81371713575,-0.0331944,0.00857137,0.04012486
2023-12-09 07:08:50.292999936,0.1189097,-0.002117677,0.009425807,-0.006655237,-0.04205811,0.05272014,-0.02393519,-0.001312382,0.1478684,-0.5960022045,-0.4815774127499999,2.9615855357499994,-0.03352403,0.008573757,0.04233767
2023-12-09 07:08:50.305999872,0.1189275,-0.002562277,0.009592208,-0.004674847,-0.04677767,0.05009912,-0.02486466,-0.0008353289,0.1531621,-0.6208668645,-0.4824127416499999,3.1147476357499992,-0.03388208,0.008589955,0.04464072
2023-12-09 07:08:50.321000192,0.1189376,-0.003203291,0.01000664,0.00146321,-0.05334666,0.05950825,-0.02645549,-0.001158071,0.1582764,-0.6473223545,-0.4835708126499999,3.27302403575,-0.03428672,0.008590312,0.04701702
2023-12-09 07:08:50.335000064,0.1191,-0.003921879,0.01058006,0.001406942,-0.05576576,0.07384713,-0.02763206,-0.0016121,0.1634122,-0.6749544144999999,-0.4851829126499999,3.43643623575,-0.03471195,0.008535425,0.04947557
2023-12-09 07:08:50.348000000,0.1189695,-0.004609568,0.01093,-0.001978331,-0.06222222,0.08114231,-0.02901221,-0.001799888,0.1687969,-0.7039666244999999,-0.4869828006499999,3.60523313575,-0.03513094,0.008579777,0.05193071
2023-12-09 07:08:50.361999872,0.1190606,-0.005329445,0.01110102,0.0009843541,-0.06844119,0.07546233,-0.0305141,-0.002220099,0.1738807,-0.7344807244999999,-0.4892028996499999,3.77911383575,-0.03560745,0.008550388,0.05445662
2023-12-09 07:08:50.376000000,0.1191915,-0.005817369,0.01138148,0.00613909,-0.06990147,0.06590416,-0.03203331,-0.003102756,0.1793041,-0.7665140344999999,-0.4923056556499999,3.95841793575,-0.03605238,0.008491637,0.05709061
2023-12-09 07:08:50.390000128,0.119576,-0.006449616,0.01135396,0.01343204,-0.07262778,0.0554391,-0.03396834,-0.004349079,0.1849589,-0.8004823744999999,-0.4966547346499999,4.14337683575,-0.03660368,0.008339487,0.05985695
2023-12-09 07:08:50.404000000,0.119643,-0.006939217,0.01137247,0.01865942,-0.07450496,0.05125024,-0.03575735,-0.005566706,0.1905996,-0.8362397245,-0.5022214406499999,4.33397643575,-0.03711048,0.008281569,0.06274632
2023-12-09 07:08:50.417999872,0.1198401,-0.007615799,0.01139384,0.02165847,-0.07836517,0.04737989,-0.03749063,-0.006385718,0.1965886,-0.8737303544999999,-0.5086071586499998,4.53056503575,-0.0377032,0.008194303,0.065727
2023-12-09 07:08:50.432000000,0.1201145,-0.008169597,0.01173008,0.02699175,-0.07667371,0.04597634,-0.03926916,-0.007129165,0.2030631,-0.9129995145,-0.5157363236499999,4.733628135749999,-0.03832107,0.008092535,0.06884832
2023-12-09 07:08:50.447000064,0.1203473,-0.008780532,0.0116725,0.02812959,-0.07593639,0.0436965,-0.04110283,-0.008622397,0.2093096,-0.9541023445,-0.5243587206499999,4.942937735749999,-0.03900461,0.007885037,0.07205502
2023-12-09 07:08:50.460000000,0.1202672,-0.009105446,0.01158711,0.01550498,-0.07005107,0.0346291,-0.0425806,-0.01053844,0.2152911,-0.9966829445,-0.5348971606499999,5.158228835749999,-0.03961382,0.007645813,0.07522237
2023-12-09 07:08:50.472999936,0.1199643,-0.00949041,0.01157839,-8.607042e-05,-0.06211857,0.0318307,-0.04424683,-0.01306576,0.2211002,-1.0409297745,-0.54796292065,5.37932903575,-0.04028705,0.007436167,0.0784712
2023-12-09 07:08:50.488000000,0.1196841,-0.009860447,0.01196105,-0.01656491,-0.05219465,0.03533752,-0.04599225,-0.01546324,0.2271955,-1.0869220245,-0.56342616065,5.606524535749999,-0.04095984,0.007143231,0.08182184
2023-12-09 07:08:50.503000064,0.1196653,-0.01015051,0.01208796,-0.01706805,-0.04158014,0.03398634,-0.04744823,-0.01815767,0.2330253,-1.1343702545,-0.58158383065,5.839549835749999,-0.04169176,0.006793591,0.08524086
2023-12-09 07:08:50.516999936,0.119515,-0.0101724,0.01220697,-0.01636341,-0.02880856,0.03335206,-0.04878763,-0.02170555,0.2393485,-1.1831578845,-0.6032893806499999,6.078898335749999,-0.04238248,0.006400445,0.08873245
2023-12-09 07:08:50.528999936,0.1194333,-0.01004939,0.01241325,-0.01656591,-0.01279172,0.032345,-0.04977276,-0.02527877,0.2448546,-1.2329306445,-0.6285681506499999,6.323752935749999,-0.04307874,0.005926472,0.09228306
2023-12-09 07:08:50.543000064,0.1194078,-0.009951947,0.01278619,-0.01223671,0.005644016,0.03518939,-0.05035029,-0.02951509,0.2501972,-1.2832809345,-0.6580832406499999,6.573950135749999,-0.04380296,0.005358798,0.09588131
2023-12-09 07:08:50.556999936,0.1191232,-0.0097639,0.0132295,-0.01324995,0.02081971,0.04403898,-0.05074434,-0.03572616,0.2553432,-1.3340252745,-0.6938094006499999,6.829293335749998,-0.04447,0.004663747,0.09953143
2023-12-09 07:08:50.572000000,0.1183691,-0.009637451,0.01365877,-0.04157473,0.02950988,0.04068037,-0.05055764,-0.04292831,0.2595484,-1.3845829145000002,-0.7367377106499998,7.088841735749998,-0.0451594,0.003821973,0.1031914
2023-12-09 07:08:50.585999872,0.1169309,-0.009378394,0.01368203,-0.09268035,0.03611952,0.02759757,-0.0497908,-0.04821159,0.2630681,-1.4343737145000002,-0.7849493006499998,7.351909835749998,-0.04580561,0.003093409,0.1069337
2023-12-09 07:08:50.599000064,0.1159157,-0.00913547,0.01350118,-0.1238995,0.03800139,0.0111654,-0.04830234,-0.05124821,0.2672448,-1.4826760545000002,-0.8361975106499998,7.619154635749998,-0.04642733,0.00233197,0.1108007
2023-12-09 07:08:50.612999936,0.1151337,-0.008857762,0.01298014,-0.1261631,0.03102887,-0.02022306,-0.04579236,-0.0515994,0.272617,-1.5284684145000005,-0.8877969106499998,7.891771635749999,-0.04694543,0.001628035,0.1147753
2023-12-09 07:08:50.627000064,0.1143467,-0.008532237,0.01202285,-0.1234403,0.01986449,-0.05777342,-0.04197571,-0.04832873,0.2793376,-1.5704441245000005,-0.9361256406499998,8.171109235749999,-0.04738954,0.001090124,0.1188379
2023-12-09 07:08:50.640999936,0.113792,-0.008356303,0.01124908,-0.1117119,0.01271764,-0.0863288,-0.03762272,-0.04227676,0.2866057,-1.6080668445,-0.9784024006499998,8.45771493575,-0.04780751,0.0006813703,0.1230236
2023-12-09 07:08:50.655000064,0.1136621,-0.008115714,0.01034189,-0.08501648,0.001459021,-0.1063233,-0.03263469,-0.03478965,0.2943906,-1.6407015345000002,-1.0131920506499998,8.75210553575,-0.04811431,0.00024707,0.1273286
2023-12-09 07:08:50.668999936,0.1131655,-0.008077245,0.009425855,-0.07414191,-0.01083851,-0.1160383,-0.02726577,-0.02906705,0.3014604,-1.6679673045000003,-1.04225910065,9.05356593575,-0.0483632,-0.0001816769,0.131718
2023-12-09 07:08:50.683000064,0.1119681,-0.008160971,0.008256073,-0.1014741,-0.02200321,-0.1226698,-0.021255,-0.02379499,0.308087,-1.6892223045000003,-1.06605409065,9.36165293575,-0.04853566,-0.0004514672,0.1361904
2023-12-09 07:08:50.696999936,0.11104,-0.008036003,0.007171492,-0.1212645,-0.03212599,-0.135125,-0.01513871,-0.01696828,0.3154434,-1.7043610145000003,-1.08302237065,9.67709633575,-0.04855217,-0.0005160408,0.1408141
2023-12-09 07:08:50.710000128,0.1108482,-0.008012056,0.00604592,-0.1003857,-0.03740595,-0.1459177,-0.008282314,-0.008824457,0.3245405,-1.7126433285000002,-1.09184682765,10.00163683575,-0.04847511,-0.0005301287,0.1455454
2023-12-09 07:08:50.724000000,0.11103,-0.008064855,0.005002441,-0.06103613,-0.04178629,-0.1422904,-0.001414227,-0.002908639,0.3336633,-1.7140575555000002,-1.09475546665,10.335300135749998,-0.04835854,-0.0006143271,0.15042
2023-12-09 07:08:50.737999872,0.1108577,-0.008235667,0.004477684,-0.03944528,-0.04795783,-0.1230225,0.005314849,1.61631e-05,0.342786,-1.7087427065000005,-1.09473930355,10.678086135749998,-0.04813213,-0.0006917331,0.1554045
2023-12-09 07:08:50.752999936,0.1105397,-0.008504895,0.00406779,-0.03981534,-0.05044004,-0.09381091,0.01160671,0.001548502,0.3512809,-1.6971359965000004,-1.09319080155,11.02936703575,-0.04782209,-0.0007013845,0.1605082
2023-12-09 07:08:50.766000128,0.1104669,-0.008748543,0.003675798,-0.03497543,-0.04973944,-0.07362261,0.01730731,0.003915326,0.3602914,-1.6798286865000005,-1.08927547555,11.38965843575,-0.04747076,-0.0005842233,0.1657657
2023-12-09 07:08:50.779000064,0.110576,-0.00869265,0.00360551,-0.01921208,-0.03965815,-0.05361975,0.02252977,0.006039205,0.3698128,-1.6572989165000005,-1.08323627055,11.75947123575,-0.0470156,-0.0005215686,0.1711369
2023-12-09 07:08:50.793999872,0.1105551,-0.008856775,0.003517595,-0.00897704,-0.03490614,-0.03508821,0.02710884,0.006594405,0.3798393,-1.6301900765000004,-1.07664186555,12.13931053575,-0.0465298,-0.0005245729,0.176656
2023-12-09 07:08:50.808000000,0.1105176,-0.009017531,0.003539444,-0.003960053,-0.02578985,-0.01680046,0.03187538,0.004969901,0.3891726,-1.5983146965000004,-1.07167196455,12.52848313575,-0.0460113,-0.0005851508,0.1822861
2023-12-09 07:08:50.822000128,0.1106328,-0.009207424,0.003646352,-0.002363756,-0.02230144,-0.002150659,0.03646304,0.001949406,0.3990425,-1.5618516565000005,-1.06972255855,12.92752563575,-0.04541792,-0.0007264314,0.1880428
2023-12-09 07:08:50.836000000,0.1107112,-0.009252366,0.003522467,0.005163045,-0.02025605,-0.001527491,0.04028318,-0.001780751,0.4083127,-1.5215684765000004,-1.0715033095500002,13.33583833575,-0.04477781,-0.0008717261,0.1939243
2023-12-09 07:08:50.849999872,0.1105526,-0.009394431,0.003593948,-0.0009876809,-0.01547596,0.002519467,0.0442599,-0.005442578,0.4184898,-1.4773085765000005,-1.0769458875500002,13.75432813575,-0.04410611,-0.001052964,0.1999691
2023-12-09 07:08:50.864000000,0.1105214,-0.009424083,0.003598262,-0.001966729,-0.01121059,0.002154275,0.04804941,-0.00794358,0.42878,-1.4292591665000005,-1.0848894675500005,14.18310813575,-0.04331691,-0.001246892,0.2061728
2023-12-09 07:08:50.878000128,0.1107159,-0.009388631,0.003605488,0.00981124,-0.005225876,0.0001060529,0.05158248,-0.008784117,0.4394027,-1.3776766865000003,-1.0936735845500003,14.62251083575,-0.04254445,-0.001419519,0.2125356
2023-12-09 07:08:50.892000000,0.1113912,-0.00884315,0.003487944,0.03119977,0.01170293,-0.008651296,0.05517145,-0.01016633,0.4507572,-1.3225052365000003,-1.1038399145500002,15.07326803575,-0.04167427,-0.001688501,0.218981
2023-12-09 07:08:50.905999872,0.1114698,-0.008304752,0.003455302,0.03357105,0.03436641,-0.01730765,0.05840265,-0.01296293,0.4605696,-1.2641025865000004,-1.1168028445500002,15.53383763575,-0.04077545,-0.002023772,0.2255104
2023-12-09 07:08:50.920000000,0.1113627,-0.007770725,0.003836956,0.02049239,0.06060895,-0.01400679,0.06206779,-0.01694566,0.4699958,-1.2020347965000004,-1.1337485045500002,16.00383343575,-0.03983429,-0.002417507,0.2321781
2023-12-09 07:08:50.934000128,0.1113001,-0.007039359,0.004185189,0.0094994,0.07684316,-0.003407747,0.06588163,-0.02121381,0.4785551,-1.1361531665000004,-1.15496231455,16.48238853575,-0.03877121,-0.002878466,0.2389848
2023-12-09 07:08:50.948000000,0.111505,-0.006339381,0.004412557,0.01306292,0.09074755,-0.002729323,0.07105028,-0.02598796,0.4875101,-1.0651028865000003,-1.18095027455,16.969898635750003,-0.03766377,-0.003428326,0.2458999
2023-12-09 07:08:50.961999872,0.1115696,-0.005508535,0.004586772,0.01444341,0.1017339,0.0004784131,0.07693694,-0.03114464,0.4971636,-0.9881659465000006,-1.21209491455,17.467062235750003,-0.03639837,-0.004016339,0.2529285
2023-12-09 07:08:50.976000000,0.1116422,-0.004592443,0.005189931,0.01498099,0.1131415,0.007957677,0.08264567,-0.03643664,0.5072348,-0.9055202765000006,-1.24853155455,17.974297035750002,-0.03503351,-0.004672718,0.2601406
2023-12-09 07:08:50.990000128,0.111734,-0.00383815,0.005991464,0.01364521,0.1249997,0.03041264,0.088273,-0.04023998,0.5182525,-0.8172472765000005,-1.28877153455,18.49254953575,-0.03370797,-0.005268984,0.2675605
2023-12-09 07:08:51.004000000,0.1120343,-0.003282927,0.006951039,0.02383611,0.1300963,0.05222015,0.09398083,-0.04301229,0.5310261,-0.7232664465000005,-1.33178382455,19.02357563575,-0.03231956,-0.005928609,0.2751952
2023-12-09 07:08:51.015000064,0.1121064,-0.002409477,0.007760221,0.02949224,0.1364573,0.06447919,0.09899715,-0.04479363,0.5419145,-0.6242692965000005,-1.37657745455,19.56549013575,-0.03078102,-0.00654747,0.2829493
2023-12-09 07:08:51.028999936,0.1122141,-0.00158605,0.008576399,0.02442647,0.1414885,0.07046115,0.1045998,-0.04725198,0.5553874,-0.5196694965000005,-1.42382943455,20.12087753575,-0.02915882,-0.00729582,0.2908348
2023-12-09 07:08:51.043000064,0.1121177,-0.0005833115,0.00901461,0.01501228,0.1486691,0.0537811,0.1098584,-0.04959369,0.5685045,-0.4098110965000004,-1.47342312455,20.68938203575,-0.02745729,-0.008054663,0.2988837
2023-12-09 07:08:51.056999936,0.1121487,0.0006119106,0.009451736,0.01219451,0.1589452,0.0377519,0.1150218,-0.05166364,0.5821922,-0.2947892965000004,-1.52508676455,21.27157423575,-0.02573479,-0.00883997,0.3072514
2023-12-09 07:08:51.071000064,0.1122214,0.001899086,0.009469509,0.01147709,0.1670298,0.01117935,0.1201976,-0.05297597,0.5960979,-0.1745916965000004,-1.57806273455,21.86767213575,-0.02397025,-0.009686179,0.31577
2023-12-09 07:08:51.084999936,0.1120801,0.003330834,0.009640271,0.00685569,0.1765286,-0.01331107,0.125334,-0.05457453,0.6096234,-0.0492576965000004,-1.63263726455,22.47729553575,-0.02207545,-0.01056086,0.3244657
2023-12-09 07:08:51.098000128,0.11157,0.004881475,0.009853882,-0.01129283,0.1951509,-0.02699641,0.1308507,-0.0576532,0.6224476,0.0815930034999995,-1.69029046455,23.099743135750003,-0.02011191,-0.01152191,0.3332546
2023-12-09 07:08:51.112000000,0.110754,0.006698743,0.01009437,-0.04544967,0.2139508,-0.0346915,0.1360882,-0.06159464,0.63433,0.2176812034999995,-1.75188510455,23.73407313575,-0.01805039,-0.01254496,0.3421791
2023-12-09 07:08:51.125999872,0.109952,0.008724857,0.01059595,-0.06829674,0.2431433,-0.04230727,0.1417059,-0.06550135,0.6464317,0.3593871034999995,-1.81738645455,24.380504835750003,-0.01598535,-0.01357216,0.3513723
2023-12-09 07:08:51.140000000,0.1093596,0.01090212,0.01121647,-0.07773145,0.2708184,-0.03783758,0.1469391,-0.06862727,0.6572053,0.5063262034999996,-1.88601372455,25.037710135750004,-0.01381822,-0.01466805,0.3607162
2023-12-09 07:08:51.154000128,0.1089242,0.01331764,0.01170682,-0.07424207,0.301813,-0.03750779,0.1524061,-0.07151985,0.6672403,0.6587323034999996,-1.95753357455,25.704950435750003,-0.01154573,-0.01576856,0.3700145
2023-12-09 07:08:51.168000000,0.1089076,0.01607659,0.01268013,-0.05076354,0.3352729,-0.02474621,0.1579019,-0.07530753,0.6768677,0.8166342034999996,-2.03284110455,26.38181813575,-0.009128496,-0.01693677,0.3793753
2023-12-09 07:08:51.181999872,0.1085142,0.01890325,0.01353468,-0.03668204,0.3673177,-0.01906874,0.1627815,-0.07740331,0.6859989,0.9794157034999996,-2.1102444145500003,27.067817035750004,-0.006721396,-0.0179092,0.3889374
2023-12-09 07:08:51.196000000,0.1076809,0.02197873,0.01446362,-0.05269793,0.403283,-0.02086585,0.167053,-0.07009245,0.6975786,1.1464687034999996,-2.1803368645500005,27.765395635750004,-0.004367199,-0.01823065,0.3987649
2023-12-09 07:08:51.210000128,0.1074278,0.02530271,0.01533115,-0.04967934,0.4340357,-0.02362682,0.1706503,-0.04618393,0.7122256,1.3171190034999996,-2.2265207945500007,28.477621235750004,-0.001926381,-0.01761802,0.4088739
2023-12-09 07:08:51.224000000,0.1104281,0.02862095,0.01603078,0.07411105,0.4564302,-0.02983405,0.1746214,-0.01306376,0.7286406,1.4917404034999997,-2.239584554550001,29.20626183575,0.0005838424,-0.01710474,0.4191018
2023-12-09 07:08:51.236999936,0.1130568,0.03202516,0.01669205,0.2020767,0.4672376,-0.02751149,0.1778012,0.01039854,0.7424493,1.6695416034999997,-2.2291860145500006,29.948711135750003,0.003150381,-0.01681527,0.4293004
2023-12-09 07:08:51.250999808,0.1131153,0.03498962,0.01780767,0.1946942,0.4669127,-0.01888785,0.1784861,0.0226547,0.7497644,1.8480277035,-2.2065313145500007,30.698475535750003,0.005556274,-0.01646284,0.4394281
2023-12-09 07:08:51.265000192,0.1115247,0.03787943,0.01899096,0.07829137,0.464226,-0.009375675,0.1758542,0.03267412,0.7539932,2.0238819034999995,-2.173857194550001,31.452468735750003,0.007824238,-0.01563188,0.4496442
2023-12-09 07:08:51.279000064,0.1108564,0.04083999,0.01981337,0.005698156,0.4556667,-0.01909959,0.1704123,0.04656647,0.7573338,2.1942942035,-2.127290724550001,32.20980253575,0.009996641,-0.01447825,0.4599483
2023-12-09 07:08:51.292999936,0.1110322,0.04354408,0.02081198,-0.002868317,0.4429512,-0.01229381,0.1633872,0.06126149,0.7596349,2.3576814035,-2.0660292345500006,32.96943743575,0.01206829,-0.01337021,0.470177
2023-12-09 07:08:51.306999808,0.1104707,0.04600579,0.02174855,-0.01341963,0.4273748,-0.002215208,0.1557326,0.07033285,0.7583676,2.5134140034999994,-1.9956963845500009,33.72780503575,0.01400251,-0.01238711,0.4802199
2023-12-09 07:08:51.321000192,0.1100353,0.04826442,0.0225831,-0.03006539,0.4053128,0.0024644,0.1470191,0.07080769,0.7519982,2.6604331034999995,-1.9248886945500008,34.479803235750005,0.01576032,-0.01169947,0.4901565
2023-12-09 07:08:51.335000064,0.1089032,0.05053505,0.02364561,-0.06018851,0.3846744,0.0003963132,0.137973,0.06539264,0.7427396,2.7984061035,-1.8594960545500008,35.222542835750005,0.01744613,-0.01102933,0.5000658
2023-12-09 07:08:51.348999936,0.1078149,0.05204451,0.02448418,-0.09298719,0.3543252,0.006929624,0.1278903,0.05789294,0.7312782,2.9262964034999994,-1.8016031145500009,35.95382103575,0.01886152,-0.01040493,0.5096951
2023-12-09 07:08:51.361999872,0.1064294,0.05369565,0.02531717,-0.1309729,0.3209009,0.009991296,0.1176596,0.05308241,0.7204362,3.0439560034999995,-1.7485207045500006,36.674257235750005,0.0203181,-0.009645942,0.5192038
2023-12-09 07:08:51.376000000,0.105906,0.05508997,0.02559719,-0.1257451,0.2820987,-0.003193466,0.1070069,0.05272545,0.7105926,3.1509629034999995,-1.6957952545500006,37.38484983575,0.02157455,-0.008815894,0.528577
2023-12-09 07:08:51.390000128,0.1056779,0.0566031,0.02566453,-0.08825559,0.2534858,-0.02089945,0.09647956,0.05363111,0.7020175,3.2474424635,-1.6421641445500006,38.08686733575,0.02262219,-0.008114634,0.5380377
2023-12-09 07:08:51.404000000,0.10472,0.05804199,0.02540782,-0.08558356,0.2311029,-0.04662875,0.08596101,0.05360677,0.6931382,3.3334034735,-1.5885573745500006,38.78000553575,0.02354757,-0.007505944,0.5473648
2023-12-09 07:08:51.417999872,0.1031438,0.05930346,0.02515394,-0.1115354,0.208457,-0.07917958,0.07620254,0.05233418,0.6839021,3.4096060135,-1.536223194550001,39.46390763575,0.02440856,-0.006835086,0.5565364
2023-12-09 07:08:51.432000000,0.1015135,0.06033421,0.02471413,-0.145715,0.183448,-0.1096548,0.06768849,0.05253025,0.6753489,3.4772945035,-1.483692944550001,40.13925653575,0.02519587,-0.006022952,0.5656383
2023-12-09 07:08:51.446000128,0.1003769,0.06107531,0.02420069,-0.1495409,0.1522553,-0.1181851,0.06058759,0.05534675,0.6688241,3.5378820935,-1.428346194550001,40.80808063575,0.02588334,-0.005049229,0.5747147
2023-12-09 07:08:51.460000000,0.09980769,0.06150152,0.02383999,-0.1308701,0.1130748,-0.1085967,0.05396003,0.05949015,0.6633006,3.5918421235,-1.3688560445500009,41.47138123575,0.02652149,-0.00420158,0.5837276
2023-12-09 07:08:51.473999872,0.09936818,0.06172149,0.02336915,-0.1022986,0.07975405,-0.0978944,0.04794412,0.06261718,0.6577922,3.6397862435,-1.3062388645500007,42.129173435750005,0.02707374,-0.003389061,0.5926577
2023-12-09 07:08:51.488000000,0.09919877,0.06175716,0.02263764,-0.06948411,0.04456325,-0.09928499,0.04236513,0.06333668,0.6524261,3.6821513735,-1.2429021845500008,42.78159953575,0.02753096,-0.002595885,0.6015602
2023-12-09 07:08:51.500999936,0.09939242,0.0618324,0.02163195,-0.03330929,0.01549099,-0.1035849,0.03743976,0.06267898,0.6484322,3.7195911335,-1.1802232045500007,43.430031735750006,0.02796108,-0.001763558,0.6104931
2023-12-09 07:08:51.515000064,0.1002493,0.06167267,0.02099759,0.01958572,-0.009685898,-0.09931201,0.03283986,0.06134231,0.6462953,3.7524309935,-1.1188808945500008,44.076327035750005,0.02832802,-0.001002557,0.6194807
2023-12-09 07:08:51.528999936,0.1014599,0.06154428,0.02005977,0.08445106,-0.03518749,-0.09403631,0.02816645,0.05988772,0.6467068,3.7805974435,-1.0589931745500007,44.72303383575,0.02863764,-0.0002688546,0.6285655
2023-12-09 07:08:51.544000000,0.1034725,0.06118022,0.01921939,0.1471789,-0.05335136,-0.07534685,0.02425236,0.05740783,0.6493106,3.8048498035,-1.0015853445500007,45.37234443575,0.02886277,0.0002802379,0.6377218
2023-12-09 07:08:51.556999936,0.1050831,0.0605955,0.01870197,0.1925627,-0.07229401,-0.05348491,0.01994025,0.0539994,0.6542857,3.8247900535,-0.9475859445500008,46.02663013575,0.02901513,0.0009536744,0.64699
2023-12-09 07:08:51.571000064,0.1066857,0.06000476,0.01844458,0.2157443,-0.08545832,-0.0255572,0.01564694,0.05003594,0.6609505,3.8404369935,-0.8975500045500007,46.68758063575,0.02913003,0.001570567,0.6564019
2023-12-09 07:08:51.584999936,0.108361,0.05927179,0.01833434,0.2205589,-0.09450099,0.001787704,0.01095572,0.04483033,0.6690503,3.8513927135,-0.8527196745500006,47.356630935750005,0.02914461,0.001908537,0.6659707
2023-12-09 07:08:51.600000000,0.109394,0.05850144,0.0180366,0.2064582,-0.1046428,0.01331234,0.006118292,0.03709561,0.6775257,3.8575110055,-0.8156240645500006,48.03415663575,0.0291149,0.002069657,0.675664
2023-12-09 07:08:51.612000000,0.1102221,0.05809011,0.0171592,0.179021,-0.1055125,-0.00334885,0.001689946,0.02586253,0.6863146,3.8592009515,-0.7897615345500005,48.72047123575,0.02905266,0.001941788,0.6854575
2023-12-09 07:08:51.625999872,0.1103426,0.0575465,0.01646875,0.1358633,-0.1020851,-0.02333235,-0.002828065,0.0138264,0.6949724,3.8563728865,-0.7759351345500005,49.41544363575,0.02886575,0.001848192,0.695427
2023-12-09 07:08:51.640999936,0.1107273,0.05693232,0.01637582,0.09719809,-0.09910756,-0.01757337,-0.007453326,0.002661471,0.7047959,3.8489195605,-0.7732736635500005,50.12023953575,0.02866493,0.001667815,0.7056162
2023-12-09 07:08:51.655000064,0.1112297,0.05607031,0.0165451,0.07888746,-0.1004649,0.007919852,-0.01212941,-0.005776287,0.7168407,3.8367901505,-0.7790499505500005,50.83708023575,0.02838137,0.001509572,0.7159746
2023-12-09 07:08:51.668999936,0.1119298,0.05506048,0.01643962,0.07792593,-0.1122604,0.02982581,-0.01679214,-0.01068332,0.7296461,3.8199980105,-0.7897332705500005,51.56672633575,0.0280108,0.00129742,0.7264432
2023-12-09 07:08:51.683000064,0.1130659,0.05408191,0.0162264,0.0963886,-0.1252791,0.03451811,-0.02206534,-0.01651425,0.7429264,3.7979326705,-0.8062475205500005,52.30965273575,0.02754101,0.0007610029,0.7370791
2023-12-09 07:08:51.696999936,0.1138677,0.05343325,0.01567201,0.1103701,-0.1301348,0.02176618,-0.02751094,-0.0254426,0.7552658,3.7704217305,-0.8316901205500005,53.06491853575,0.02701434,5.113252e-05,0.7479227
2023-12-09 07:08:51.710000128,0.1146256,0.05253786,0.01502614,0.1131168,-0.1350074,0.005255559,-0.03279541,-0.03833385,0.7658306,3.7376263205,-0.8700239705500005,53.83074913575,0.02637644,-0.0009690338,0.7588789
2023-12-09 07:08:51.724999936,0.1146426,0.05150463,0.0144282,0.08624893,-0.1458503,-0.006366594,-0.03815159,-0.05426953,0.7776544,3.6994747305,-0.9242935005500004,54.60840353575,0.02576479,-0.002055003,0.7699639
2023-12-09 07:08:51.737999872,0.114703,0.05017444,0.01370288,0.05649148,-0.1660305,-0.01510828,-0.04263989,-0.06453505,0.7886466,3.6568348405,-0.9888285505500004,55.39705013575,0.02506331,-0.003069472,0.7812185
2023-12-09 07:08:51.752000000,0.1152607,0.0489728,0.01280904,0.05478639,-0.1865436,-0.0272573,-0.04731328,-0.06998716,0.8024144,3.6095215605,-1.0588157105500005,56.19946453575,0.02429731,-0.004097451,0.792818
2023-12-09 07:08:51.766000128,0.1165208,0.04765482,0.01165411,0.09269868,-0.2027396,-0.04682603,-0.05197228,-0.07241277,0.8168705,3.5575492804999995,-1.1312284805500004,57.01633503575,0.02336427,-0.005316142,0.8045707
2023-12-09 07:08:51.780000000,0.1173983,0.04643925,0.01068929,0.115661,-0.2117936,-0.04657796,-0.05710632,-0.07617062,0.830839,3.5004429605,-1.2073991005500004,57.84717403575,0.02240117,-0.006684578,0.81642
2023-12-09 07:08:51.793999872,0.1173524,0.04470937,0.01023568,0.08790089,-0.219479,-0.0274923,-0.06241649,-0.08257182,0.8412116,3.4380264705,-1.2899709205500005,58.68838563575,0.02132742,-0.00802232,0.828261
2023-12-09 07:08:51.808000000,0.1169137,0.04324671,0.009786319,0.03444565,-0.225824,-0.01966099,-0.06869412,-0.08908416,0.8500739,3.3693323505,-1.3790550805500006,59.53845953574999,0.0201996,-0.009341278,0.840245
2023-12-09 07:08:51.822000128,0.1167223,0.04205883,0.009087846,0.005207433,-0.2217456,-0.01794897,-0.07659392,-0.09219953,0.8600218,3.2927384305,-1.4712546105500006,60.39848133574999,0.01892411,-0.01051704,0.8525591
2023-12-09 07:08:51.836000000,0.1169172,0.0407967,0.00857449,0.006355264,-0.2081663,-0.01165294,-0.08456357,-0.09070071,0.8707391,3.2081748605,-1.5619553205500003,61.26922043574999,0.0175351,-0.01163877,0.8650415
2023-12-09 07:08:51.849999872,0.1170308,0.03974288,0.007942384,0.01261661,-0.2023008,-0.0156649,-0.09276041,-0.08540524,0.8817136,3.1154144505,-1.6473605605500006,62.15093403574999,0.01608893,-0.01261633,0.8776835
2023-12-09 07:08:51.864000000,0.117121,0.03846367,0.007197896,0.01621906,-0.1947129,-0.02366883,-0.1009951,-0.07764389,0.8930785,3.0144193505,-1.7250044505500006,63.04401253574999,0.01441109,-0.01346841,0.890459
2023-12-09 07:08:51.877000192,0.1170109,0.0376607,0.006631424,0.01225574,-0.1827991,-0.03241396,-0.1088495,-0.0690326,0.9032598,2.9055698505,-1.7940370505500003,63.94727233574999,0.01274244,-0.01415676,0.9033384
2023-12-09 07:08:51.891000064,0.1171622,0.03674915,0.005610333,0.009345016,-0.1769758,-0.04657831,-0.1172473,-0.0593774,0.9121389,2.7883225505,-1.8534144505500003,64.85941123574999,0.01088592,-0.01476925,0.9162321
2023-12-09 07:08:51.904999936,0.1174292,0.03611748,0.004202235,0.02680029,-0.1707569,-0.07402117,-0.1250214,-0.04957002,0.9203763,2.6633011505,-1.9029844705500003,65.77978753574999,0.008979723,-0.0151997,0.9292114
2023-12-09 07:08:51.918999808,0.1183023,0.03535457,0.002637978,0.05888854,-0.1696727,-0.1071701,-0.1322875,-0.03814425,0.9282525,2.5310136505000003,-1.9411287205500003,66.70804003574999,0.006972231,-0.01554394,0.9422618
2023-12-09 07:08:51.933000192,0.1193478,0.03449696,0.00126486,0.09876294,-0.1725816,-0.121482,-0.1380482,-0.02633877,0.9356934,2.3929654505,-1.9674674905500005,67.64373343575,0.004900973,-0.01564121,0.9554357
2023-12-09 07:08:51.947000064,0.1206812,0.03340218,0.0006035403,0.1344201,-0.1742953,-0.1008161,-0.1429771,-0.01218173,0.9423969,2.2499883505,-1.9796492205500005,68.58613033575,0.002788723,-0.01541151,0.968658
2023-12-09 07:08:51.960999936,0.1214967,0.03231046,4.029949e-05,0.1415816,-0.1759979,-0.06600679,-0.1474082,0.007578851,0.9492153,2.1025801505,-1.9720703695500004,69.53534563575,0.0006525517,-0.01464069,0.982088
2023-12-09 07:08:51.974999808,0.1215666,0.03140167,-0.00041505,0.1104315,-0.1696432,-0.04193537,-0.1507761,0.036545,0.9567023,1.9518040505,-1.9355253695500003,70.49204793575001,-0.001485549,-0.0129574,0.9956791
2023-12-09 07:08:51.989000192,0.1247746,0.03090368,-0.001412179,0.1846228,-0.1531827,-0.0443159,-0.1525176,0.07241964,0.9654325,1.7992864505,-1.8631057295500004,71.45748043575001,-0.003589928,-0.01112707,1.009301
2023-12-09 07:08:52.002000128,0.1301001,0.03085979,-0.002890218,0.3762012,-0.1229148,-0.0633845,-0.1511111,0.09931362,0.9736137,1.6481753505,-1.7637921095500004,72.43109413575002,-0.005583927,-0.009828174,1.022842
2023-12-09 07:08:52.016000000,0.1347847,0.03069442,-0.003495043,0.5087858,-0.09351567,-0.06080873,-0.146809,0.1055813,0.9750212,1.5013663505,-1.6582108095500003,73.40611533575002,-0.007412095,-0.008893842,1.036188
2023-12-09 07:08:52.029999872,0.1398464,0.03063101,-0.004239204,0.6015199,-0.06516803,-0.04738628,-0.1398657,0.09125771,0.9717773,1.3615006505,-1.5669530995500005,74.37789263575002,-0.00912695,-0.008654989,1.049573
2023-12-09 07:08:52.044000000,0.1417527,0.03072735,-0.004633081,0.5482599,-0.04483493,-0.03915167,-0.1308933,0.06552926,0.9684298,1.2306073505,-1.5014238395500004,75.34632243575001,-0.01064309,-0.008399533,1.063022
2023-12-09 07:08:52.058000128,0.1418973,0.03076172,-0.005437666,0.3896448,-0.03522183,-0.05204104,-0.1207592,0.0454267,0.9637244,1.1098481505000002,-1.4559971395500004,76.31004683575001,-0.01204597,-0.008052954,1.076205
2023-12-09 07:08:52.072000000,0.1412713,0.03047188,-0.005303362,0.2157104,-0.03436843,-0.04095001,-0.1101008,0.03529732,0.9602135,0.9997473505000002,-1.4206998195500005,77.27026033575001,-0.0133181,-0.007530455,1.089536
2023-12-09 07:08:52.085999872,0.1401116,0.02991625,-0.00484544,0.06850756,-0.04162464,-0.00592265,-0.09886053,0.03498821,0.9572638,0.9008868205000002,-1.3857116095500004,78.22752413575002,-0.01432223,-0.006782446,1.102776
2023-12-09 07:08:52.100000000,0.1384936,0.02902738,-0.004360868,-0.05456847,-0.05496579,0.03804972,-0.08600492,0.03930051,0.9535915,0.8148819005000002,-1.3464110995500005,79.18111563575002,-0.01513311,-0.00608609,1.115982
2023-12-09 07:08:52.114000128,0.1358556,0.02785039,-0.003644351,-0.1704316,-0.07529502,0.06926423,-0.0731255,0.04188003,0.9484105,0.7417564005000002,-1.3045310695500003,80.12952613575001,-0.01581858,-0.005489891,1.129042
2023-12-09 07:08:52.128000000,0.1319944,0.02690981,-0.002984268,-0.3048003,-0.09543951,0.08284657,-0.06088636,0.04361005,0.9413256,0.6808700405000002,-1.2609210195500005,81.07085173575001,-0.01645466,-0.004742507,1.14202
2023-12-09 07:08:52.140999936,0.1286033,0.0257355,-0.002523591,-0.398827,-0.1095809,0.0885465,-0.04919291,0.04845393,0.933284,0.6316771305000002,-1.2124670895500005,82.00413573575001,-0.01704739,-0.003809961,1.154886
2023-12-09 07:08:52.156000000,0.1257497,0.02462489,-0.002139376,-0.4198357,-0.122748,0.09101266,-0.03910165,0.0561015,0.9248281,0.5925754805000002,-1.1563655895500005,82.92896383575001,-0.01742496,-0.002792535,1.167657
2023-12-09 07:08:52.168999936,0.1234917,0.02328191,-0.001738583,-0.4045344,-0.1308868,0.0923841,-0.0303248,0.06857175,0.91782,0.5622506805000002,-1.0877938395500004,83.84678383575002,-0.01775229,-0.001414703,1.180383
2023-12-09 07:08:52.183000064,0.1228008,0.02246604,-0.001690942,-0.3188147,-0.1294727,0.07903083,-0.02298738,0.08521061,0.9125237,0.5392633005000002,-1.0025832295500003,84.75930753575001,-0.01795854,0.0002385724,1.193078
2023-12-09 07:08:52.196999936,0.1239299,0.02179362,-0.001725346,-0.1690991,-0.1197118,0.0627281,-0.01696869,0.1022546,0.9096768,0.5222946105000001,-0.9003286295500004,85.66898433575001,-0.01820605,0.001813144,1.205767
2023-12-09 07:08:52.211000064,0.1253515,0.02119319,-0.001641586,-0.02928621,-0.1050536,0.05924417,-0.01156442,0.111881,0.9082448,0.5107301905000001,-0.7884476295500004,86.57722913575002,-0.01835672,0.003248116,1.218403
2023-12-09 07:08:52.224999936,0.1264146,0.02055583,-0.001272647,0.06135193,-0.0883829,0.06780013,-0.005614139,0.1120726,0.9063865,0.5051160515000002,-0.6763750295500004,87.48361563575001,-0.01837177,0.00458313,1.230975
2023-12-09 07:08:52.239000064,0.1274235,0.01968396,-0.0005364702,0.09563382,-0.08016413,0.0899696,4.241988e-05,0.1046306,0.9048186,0.5051584713800001,-0.5717444295500004,88.38843423575001,-0.01834689,0.005652677,1.243567
2023-12-09 07:08:52.252999936,0.1284041,0.01897012,0.0001396928,0.1129443,-0.07509269,0.1133499,0.005094988,0.09024137,0.9044549,0.5102534593800001,-0.4815030595500004,89.29288913575002,-0.01822688,0.006391323,1.256222
2023-12-09 07:08:52.267000064,0.1291889,0.01830357,0.001004106,0.1192327,-0.06649107,0.1264891,0.009296618,0.07168912,0.9053786,0.5195500773800001,-0.4098139395500004,90.19826773575002,-0.01806259,0.006767794,1.268938
2023-12-09 07:08:52.280000000,0.1295032,0.01771644,0.001587193,0.09767453,-0.05760196,0.1286937,0.01252054,0.05077926,0.9071232,0.5320706173800002,-0.3590346795500004,91.10539093575002,-0.01788667,0.006865753,1.281665
2023-12-09 07:08:52.295000064,0.1293615,0.0171832,0.002125455,0.05976321,-0.05038148,0.1213222,0.01586699,0.02748571,0.9091918,0.5479376073800002,-0.3315489695500004,92.01458273575004,-0.01758906,0.00673228,1.29433
2023-12-09 07:08:52.308000000,0.1289259,0.01659932,0.00264584,0.0135845,-0.04996775,0.1113702,0.01944684,0.005054512,0.9116493,0.5673844473800002,-0.3264944575500004,92.92623203575002,-0.01721787,0.00626475,1.30706
2023-12-09 07:08:52.322000128,0.1280591,0.0159097,0.00267483,-0.03613611,-0.06056404,0.09335636,0.02332285,-0.01707003,0.9146364,0.5907072973800002,-0.3435644875500004,93.84086843575002,-0.01685381,0.005538759,1.319823
2023-12-09 07:08:52.336000000,0.1272976,0.01543586,0.002445832,-0.07109764,-0.06722325,0.05957091,0.02744349,-0.03778692,0.9190453,0.6181507873800002,-0.3813514075500004,94.75991373575002,-0.01644758,0.004623523,1.332707
2023-12-09 07:08:52.349999872,0.1265746,0.01507608,0.002300825,-0.0843337,-0.06503702,0.03338193,0.03089504,-0.0544499,0.9245604,0.6490458273800002,-0.4358013075500004,95.68447413575002,-0.01597743,0.003553031,1.345725
2023-12-09 07:08:52.364000000,0.1257938,0.01471455,0.002402537,-0.09447663,-0.05891597,0.02413813,0.03490154,-0.06868515,0.9309987,0.6839473673800002,-0.5044864575500004,96.61547283575004,-0.01537914,0.002327005,1.358948
2023-12-09 07:08:52.378000128,0.1253964,0.01398472,0.002623692,-0.09513277,-0.06244349,0.03563159,0.03968436,-0.08118296,0.9374677,0.7236317273800001,-0.5856694175500005,97.55294053575004,-0.01468644,0.0008505675,1.372258
2023-12-09 07:08:52.392000000,0.1242276,0.01313055,0.002780287,-0.1105643,-0.07476772,0.04637328,0.04521555,-0.092473,0.9436293,0.7688472773800001,-0.6781424175500005,98.49656983575002,-0.01399005,-0.0006729886,1.38558
2023-12-09 07:08:52.405999872,0.1229483,0.01250177,0.003128361,-0.1343301,-0.07807448,0.0519584,0.05074466,-0.102593,0.949272,0.8195919373800001,-0.7807354175500005,99.44584183575002,-0.01320682,-0.002299361,1.398963
2023-12-09 07:08:52.420000000,0.1216704,0.01223578,0.003173343,-0.1574194,-0.06709309,0.04572491,0.05596871,-0.1098271,0.9547786,0.8755606473800002,-0.8905625175500005,100.40062043575,-0.01234061,-0.003890349,1.412358
2023-12-09 07:08:52.434000128,0.1208685,0.01223655,0.003260672,-0.1525619,-0.04409069,0.03395851,0.06095165,-0.1133203,0.9597739,0.9365122973800002,-1.0038828175500003,101.36039433575002,-0.01137077,-0.005466803,1.425783
2023-12-09 07:08:52.447000064,0.1204721,0.0123747,0.003547153,-0.1277514,-0.01495588,0.02787198,0.06627104,-0.1152279,0.9643704,1.00278333738,-1.1191107175500006,102.32476473575002,-0.01031169,-0.007120551,1.439204
2023-12-09 07:08:52.461999872,0.1199561,0.01250766,0.004279735,-0.09966697,0.01589363,0.04233235,0.07227141,-0.1180748,0.96818,1.07505474738,-1.2371855175500006,103.29294473575004,-0.009163957,-0.008847294,1.45276
2023-12-09 07:08:52.476000000,0.1193617,0.01291028,0.00498112,-0.09296913,0.03730258,0.05806484,0.07832901,-0.1212493,0.9710031,1.15338375738,-1.3584348175500005,104.26394783575005,-0.007875983,-0.0106394,1.466341
2023-12-09 07:08:52.489000192,0.1188268,0.01358473,0.005795687,-0.08966275,0.06762039,0.05953696,0.08474406,-0.1236643,0.9735783,1.23812781738,-1.4820991175500005,105.23752613575004,-0.006554864,-0.01237297,1.479926
2023-12-09 07:08:52.503000064,0.1183129,0.0145761,0.006415059,-0.08476963,0.1054732,0.05373269,0.09078351,-0.1242349,0.9757073,1.3289113273800002,-1.6063340175500005,106.21323343575004,-0.005198412,-0.01402899,1.493498
2023-12-09 07:08:52.517999872,0.1181583,0.01583914,0.007409479,-0.0695951,0.1488951,0.05857579,0.09639516,-0.1232849,0.9768821,1.42530648738,-1.7296189175500003,107.19011553575002,-0.003749166,-0.01565495,1.506975
2023-12-09 07:08:52.530999808,0.1178674,0.0170546,0.008857228,-0.05330825,0.181545,0.08132319,0.1017265,-0.1225322,0.9771798,1.5270329873800002,-1.8521511175500005,108.16729533575004,-0.002189804,-0.01725465,1.520405
2023-12-09 07:08:52.545000192,0.1173671,0.01845435,0.009941814,-0.05332118,0.205952,0.08804604,0.1069517,-0.1203519,0.9763179,1.63398468738,-1.9725030175500005,109.14361323575002,-0.000608772,-0.01871733,1.533763
2023-12-09 07:08:52.559000064,0.1171022,0.01989088,0.01114221,-0.05220994,0.2267809,0.08222142,0.1108874,-0.114906,0.9746237,1.74487208738,-2.0874090175500006,110.11823693575002,0.0009545796,-0.02006195,1.547206
2023-12-09 07:08:52.572999936,0.1159338,0.02172432,0.01204709,-0.08122026,0.2470053,0.06483857,0.1128625,-0.1030368,0.9730389,1.85773458738,-2.190445817550001,111.09127583575004,0.002533063,-0.02091837,1.560683
2023-12-09 07:08:52.586999808,0.1130114,0.0234376,0.01266159,-0.1801031,0.2614386,0.04062007,0.1128274,-0.07492691,0.9744567,1.97056198738,-2.2653727275500004,112.06573253575004,0.004018962,-0.02060075,1.574307
2023-12-09 07:08:52.601000192,0.1117124,0.02545926,0.01275307,-0.2151757,0.2674148,-0.0059513,0.1102915,-0.02210054,0.9826868,2.08085348738,-2.28747326755,113.04841933575004,0.0054189,-0.01911969,1.588249
2023-12-09 07:08:52.615000064,0.115504,0.02813672,0.01208971,-0.01190659,0.2838101,-0.06811734,0.1064409,0.03277803,0.9966711,2.18729438738,-2.2546952375500005,114.04509043575004,0.006744333,-0.01796136,1.602367
2023-12-09 07:08:52.628999936,0.1188715,0.03137925,0.01096625,0.2072988,0.3118019,-0.1364191,0.100027,0.06746367,1.009503,2.28732138738,-2.1872315675500005,115.05459343575002,0.007805776,-0.01714676,1.616362
2023-12-09 07:08:52.641999872,0.1195479,0.03465481,0.01061845,0.2434966,0.352596,-0.1721114,0.09036718,0.07935475,1.013603,2.37768856738,-2.1078768175500007,116.06819643575002,0.008642748,-0.01634279,1.630201
2023-12-09 07:08:52.657000192,0.1199316,0.03772276,0.01164107,0.1953805,0.3909026,-0.1391668,0.07710697,0.07388053,1.012031,2.45479553738,-2.033996287550001,117.08022743575002,0.009346008,-0.01589719,1.643869
2023-12-09 07:08:52.670000128,0.1178376,0.04002724,0.01350177,0.05339597,0.4068169,-0.05841145,0.06358776,0.0613142,1.00492,2.51838329738,-1.9726820875500009,118.08514743575002,0.009881951,-0.01531772,1.657287
2023-12-09 07:08:52.684000000,0.1137711,0.04163935,0.01550887,-0.1741726,0.3925169,0.0194541,0.05032688,0.05077593,0.9921154,2.56871017738,-1.921906157550001,119.07726283575002,0.0102538,-0.01456237,1.670569
2023-12-09 07:08:52.697999872,0.1096831,0.04334738,0.01669209,-0.3509145,0.3613183,0.03013728,0.03815613,0.0522096,0.9807505,2.60686630738,-1.8696965575500009,120.05801333575002,0.01050695,-0.01330566,1.683879
2023-12-09 07:08:52.712000000,0.1080192,0.04526455,0.01702257,-0.3622326,0.335113,-0.002791328,0.02583723,0.06875516,0.9721775,2.63270353738,-1.8009413975500008,121.03019083575002,0.01053409,-0.01158264,1.69716
2023-12-09 07:08:52.726000128,0.1090355,0.04740293,0.01697365,-0.2062777,0.3094348,-0.03291723,0.01198144,0.09407834,0.9677824,2.64468497738,-1.7068630575500008,121.99797323575002,0.01033264,-0.009739932,1.710473
2023-12-09 07:08:52.740000000,0.1106207,0.04922952,0.01655062,-0.04189485,0.2825764,-0.05888158,-0.0005927105,0.1162509,0.9639934,2.64409226688,-1.5906121575500007,122.96196663575004,0.009972718,-0.007931917,1.723571
2023-12-09 07:08:52.753999872,0.1103904,0.05083942,0.01584481,0.02219444,0.2537011,-0.1005058,-0.01105993,0.1322765,0.9584579,2.63303233688,-1.4583356575500008,123.92042453575004,0.009607803,-0.005897447,1.736515
2023-12-09 07:08:52.768000000,0.1102445,0.05241942,0.01493904,0.02663127,0.2215416,-0.135636,-0.01994449,0.1459179,0.9518086,2.61308784688,-1.312417757550001,124.87223313575004,0.009237748,-0.003709653,1.749325
2023-12-09 07:08:52.780999936,0.1109893,0.05363905,0.01465048,0.0527455,0.1935295,-0.1364647,-0.02749397,0.1556621,0.9463125,2.58559387688,-1.1567556575500009,125.81854563575004,0.008765969,-0.001619365,1.762237
2023-12-09 07:08:52.795000064,0.1118033,0.05459242,0.01398069,0.08669686,0.1670768,-0.1199513,-0.03377326,0.1584181,0.9413348,2.55182061688,-0.9983375575500008,126.75988043575003,0.008158628,0.0003946661,1.775182
2023-12-09 07:08:52.808999936,0.1122835,0.05568685,0.01349612,0.09613375,0.1406064,-0.1139271,-0.03818101,0.1550314,0.9365695,2.51363960688,-0.8433061575500008,127.69644993575004,0.007634964,0.002272035,1.788111
2023-12-09 07:08:52.823000064,0.1133731,0.05644577,0.01289742,0.1164655,0.1179418,-0.1082119,-0.04156028,0.1470773,0.9333984,2.47207932688,-0.6962288575500009,128.62984833575004,0.00696576,0.003963388,1.801066
2023-12-09 07:08:52.836999936,0.1148822,0.05697927,0.01221967,0.1584159,0.09002563,-0.0967719,-0.04492231,0.1358615,0.9321969,2.42715701688,-0.5603673575500009,129.56204523575005,0.006268241,0.005475912,1.814127
2023-12-09 07:08:52.851000064,0.1167048,0.05766138,0.01128592,0.2046234,0.07159318,-0.09825466,-0.04674994,0.1235328,0.9330999,2.38040707688,-0.4368345575500009,130.49514513575005,0.005630948,0.006721155,1.827186
2023-12-09 07:08:52.865999872,0.1189216,0.05818045,0.01011034,0.2589956,0.05032135,-0.1060844,-0.04823473,0.1077878,0.9356474,2.33217234688,-0.3290467575500009,131.43079253575004,0.004971519,0.007611266,1.840291
2023-12-09 07:08:52.879000064,0.1210963,0.05845147,0.009128688,0.2936916,0.02700885,-0.09929851,-0.04965752,0.08959887,0.939739,2.28251482688,-0.2394478875500009,132.37053153575005,0.00430214,0.008169295,1.853508
2023-12-09 07:08:52.894000128,0.1228788,0.05849207,0.008343272,0.3016388,0.006029171,-0.09463433,-0.05056133,0.06994701,0.9452681,2.23195349688,-0.1695008775500009,133.31579963575004,0.003531754,0.008572794,1.866942
2023-12-09 07:08:52.907000064,0.12466,0.05840771,0.007508466,0.291382,-0.01560773,-0.08188517,-0.05126355,0.04951332,0.9511988,2.1806899468800003,-0.1199875575500009,134.26699843575005,0.002772469,0.008693308,1.880463
2023-12-09 07:08:52.920000000,0.1264461,0.05803556,0.00714701,0.2808191,-0.03981019,-0.04869412,-0.05202736,0.02867549,0.95781,2.1286625868800004,-0.0913120675500009,135.22480843575002,0.002005242,0.008489132,1.894047
2023-12-09 07:08:52.935000064,0.1281361,0.05721378,0.007195907,0.2639704,-0.06293206,-0.002739268,-0.05290082,0.006858299,0.9659258,2.0757617668800004,-0.0844537685500009,136.19073423575003,0.00117401,0.007993015,1.907741
2023-12-09 07:08:52.948999936,0.1297735,0.05639656,0.006976556,0.2466507,-0.08252537,0.02733436,-0.05378036,-0.01405209,0.973592,2.02198140688,-0.0985058585500009,137.16432623575002,0.0003523454,0.007185831,1.921497
2023-12-09 07:08:52.963000064,0.1309168,0.05568106,0.006607557,0.2251669,-0.09817841,0.02820113,-0.05574691,-0.03430748,0.9813397,1.96623449688,-0.1328133385500009,138.14566593575003,-0.0004658513,0.006220006,1.935301
2023-12-09 07:08:52.976999936,0.131848,0.05497828,0.006273898,0.1895741,-0.1032506,0.02744741,-0.05911071,-0.05353338,0.9897245,1.90712378688,-0.1863467185500009,139.13539043575005,-0.001376793,0.005059182,1.949233
2023-12-09 07:08:52.990000128,0.1324828,0.05408349,0.006136669,0.1580708,-0.1062724,0.02724485,-0.06312986,-0.06917005,0.9983632,1.84399392688,-0.2555167685500009,140.13375363575005,-0.002372224,0.003806169,1.963448
2023-12-09 07:08:53.004000000,0.1334382,0.05325155,0.006028947,0.1401585,-0.1132183,0.03564102,-0.0672685,-0.08202992,1.007143,1.77672542688,-0.3375466885500009,141.14089663575004,-0.003374368,0.002361163,1.97779
2023-12-09 07:08:53.017999872,0.1342643,0.05205972,0.006088952,0.1310388,-0.1247678,0.05454065,-0.07160347,-0.09523219,1.015962,1.7051219568800002,-0.4327788785500009,142.15685863575004,-0.004488915,0.0006527803,1.992264
2023-12-09 07:08:53.032000000,0.1344758,0.05075321,0.005984026,0.09820352,-0.1453218,0.06439272,-0.0765332,-0.1089465,1.024363,1.6285887568800002,-0.5417253785500009,143.18122163575003,-0.005659457,-0.001242003,2.006835
2023-12-09 07:08:53.046000128,0.134388,0.04932214,0.005756573,0.05227511,-0.1580642,0.06351484,-0.08156011,-0.1192751,1.032761,1.54702864688,-0.6610004785500009,144.21398263575003,-0.006980471,-0.003105942,2.021549
2023-12-09 07:08:53.060000000,0.1347213,0.04813251,0.005430269,0.04300642,-0.1728702,0.0478715,-0.08732243,-0.1253203,1.041735,1.45970621688,-0.7863207785500008,145.25571763575002,-0.008342292,-0.004919737,2.03651
2023-12-09 07:08:53.072999936,0.1359236,0.0470156,0.004706691,0.07743843,-0.1818441,0.03033417,-0.09310637,-0.1280317,1.051335,1.3665998468800002,-0.9143524785500008,146.30705263575,-0.009790514,-0.006823606,2.051627
2023-12-09 07:08:53.086999808,0.1365977,0.04568509,0.004097495,0.09857952,-0.1907438,0.01842415,-0.09964989,-0.1273191,1.061714,1.2669499568800002,-1.0416715785500008,147.36876663575,-0.01138003,-0.008571644,2.066846
2023-12-09 07:08:53.101000192,0.1374595,0.04438445,0.003576036,0.1052713,-0.1961388,0.01312285,-0.1063294,-0.1234027,1.071203,1.1606205568800003,-1.1650742785500008,148.43996963575,-0.01305089,-0.01025862,2.082158
2023-12-09 07:08:53.115000064,0.1386924,0.04332931,0.00296903,0.1310094,-0.189293,0.01454164,-0.1138415,-0.1180193,1.081217,1.0467790568800004,-1.2830935785500008,149.52118663575,-0.0148406,-0.0118775,2.097646
2023-12-09 07:08:53.130000128,0.1397951,0.04249007,0.002476624,0.1430414,-0.1756552,0.01182668,-0.1222891,-0.11239,1.090758,0.9244899568800004,-1.3954835785500008,150.61194463575,-0.01682387,-0.01337566,2.113302
2023-12-09 07:08:53.142999808,0.1403854,0.04176359,0.002227378,0.1372466,-0.1467136,0.01447402,-0.131063,-0.1065408,1.099268,0.7934269568800003,-1.502024378550001,151.71121263575,-0.01894603,-0.01465413,2.129047
2023-12-09 07:08:53.157000192,0.1410376,0.04127485,0.002323576,0.1196185,-0.116686,0.02272786,-0.1399714,-0.09881423,1.107416,0.6534555568800003,-1.600838608550001,152.81862863575,-0.02114297,-0.01583117,2.144766
2023-12-09 07:08:53.171000064,0.14168,0.04065866,0.002738878,0.1037553,-0.09165792,0.04777483,-0.14876,-0.09030075,1.113826,0.5046955568800003,-1.691139358550001,153.93245463575,-0.02343543,-0.01701363,2.160476
2023-12-09 07:08:53.184999936,0.1408874,0.03999605,0.003148022,0.0378754,-0.08108439,0.06616848,-0.1559981,-0.08331344,1.116805,0.3486974568800003,-1.774452798550001,155.04925963575,-0.02574182,-0.01806085,2.17614
2023-12-09 07:08:53.198999808,0.1371849,0.03898511,0.003095032,-0.1330798,-0.09198137,0.0461905,-0.1610898,-0.07324187,1.116818,0.1876076568800003,-1.8476946685500009,156.16607763575,-0.02805139,-0.01855011,2.191893
2023-12-09 07:08:53.212999936,0.1312606,0.03764645,0.002513611,-0.3875418,-0.1286718,0.001176077,-0.1644868,-0.03979244,1.119085,0.0231208568800003,-1.887487108550001,157.28516263575,-0.0303864,-0.0172228,2.207821
2023-12-09 07:08:53.226000128,0.1334891,0.03663589,0.001047245,-0.2787973,-0.1666696,-0.03739372,-0.165011,0.01904694,1.126493,-0.1418901431199996,-1.868440168550001,158.41165563575,-0.03259254,-0.01548421,2.224071
2023-12-09 07:08:53.240000000,0.1416117,0.03563647,-0.0007406992,0.1811581,-0.1850626,-0.04748887,-0.1629804,0.05838114,1.139467,-0.3048705431199996,-1.810059028550001,159.55112263575,-0.03475241,-0.01500109,2.240355
2023-12-09 07:08:53.253999872,0.1466185,0.03467979,-0.001893654,0.4846407,-0.1859285,-0.04045245,-0.1579461,0.0670962,1.142525,-0.4628166431199997,-1.742962828550001,160.69364763575,-0.03673568,-0.01498858,2.25593
2023-12-09 07:08:53.268000000,0.1473083,0.03370516,-0.002635356,0.446445,-0.1855844,-0.03617429,-0.150032,0.0537338,1.135052,-0.6128486431199998,-1.689229028550001,161.82869963575,-0.03846825,-0.01500706,2.271479
2023-12-09 07:08:53.282000128,0.1447714,0.03264834,-0.00487527,0.2075844,-0.2071966,-0.09425268,-0.1375675,0.03596143,1.125644,-0.7504161431199998,-1.653267598550001,162.95434363575,-0.03999228,-0.0148941,2.287046
2023-12-09 07:08:53.296000000,0.1397215,0.03146297,-0.007391401,-0.1114026,-0.2477626,-0.1844841,-0.123718,0.03926379,1.118026,-0.8741341431199998,-1.614003808550001,164.07236963575,-0.04142478,-0.01347143,2.302581
2023-12-09 07:08:53.309999872,0.1378676,0.030477,-0.009267037,-0.2341663,-0.2634075,-0.2157196,-0.1103536,0.06522132,1.112647,-0.98448774312,-1.548782488550001,165.18501663575,-0.04268921,-0.01154368,2.318267
2023-12-09 07:08:53.324000000,0.1382175,0.02956757,-0.01048711,-0.1730945,-0.243899,-0.1871557,-0.09721749,0.09965353,1.113209,-1.08170523312,-1.449128958550001,166.29822563575,-0.04371231,-0.009681137,2.333842
2023-12-09 07:08:53.338000128,0.1368356,0.02872399,-0.01106021,-0.1534579,-0.2148109,-0.1397117,-0.08447985,0.1219246,1.109312,-1.1661850831199998,-1.3272043585500009,167.40753763575,-0.04448899,-0.008019333,2.34896
2023-12-09 07:08:53.352000000,0.1335035,0.02750891,-0.01057006,-0.2419092,-0.1868324,-0.06429991,-0.07179868,0.1297999,1.09994,-1.23798376312,-1.1974044585500008,168.50747763575,-0.04515798,-0.006268522,2.364005
2023-12-09 07:08:53.364999936,0.1304813,0.02628043,-0.009333212,-0.3347507,-0.161853,0.03098304,-0.0596723,0.1313006,1.087214,-1.2976560631199998,-1.066103858550001,169.59469163575,-0.04575322,-0.004446142,2.379001
2023-12-09 07:08:53.380000000,0.1280486,0.02475861,-0.007610159,-0.3652399,-0.142896,0.1241369,-0.04997575,0.1347432,1.076355,-1.3476318131199998,-0.9313606585500008,170.67104663575,-0.04630253,-0.002254673,2.394002
2023-12-09 07:08:53.392999936,0.1275015,0.02326939,-0.006276008,-0.2957757,-0.1278233,0.1904401,-0.04243527,0.1425734,1.069164,-1.3900670831199995,-0.788787258550001,171.74021063575,-0.04681067,9.703339e-05,2.4089
2023-12-09 07:08:53.407000064,0.128859,0.02229352,-0.005115442,-0.1412808,-0.1149209,0.214496,-0.03729535,0.1474299,1.065036,-1.4273624331199997,-0.641357358550001,172.80524663575,-0.04723239,0.002054381,2.423765
2023-12-09 07:08:53.420999936,0.1302308,0.02126541,-0.003932012,-0.002462865,-0.09722947,0.2200365,-0.03373389,0.1419388,1.061841,-1.4610963231199996,-0.4994185585500009,173.86708763574998,-0.04762748,0.003597308,2.438563
2023-12-09 07:08:53.435000064,0.1311429,0.02005192,-0.002995825,0.06723782,-0.08934395,0.2170075,-0.03141183,0.1261432,1.05895,-1.4925081531199995,-0.3732753585500009,174.92603763575,-0.04804209,0.004769987,2.453369
2023-12-09 07:08:53.448999936,0.1318547,0.01876404,-0.002002621,0.09017184,-0.09330365,0.2161564,-0.02988609,0.1026811,1.056754,-1.5223942431199995,-0.2705942585500009,175.98279163575,-0.04842028,0.005507777,2.468176
2023-12-09 07:08:53.463000064,0.132349,0.0175623,-0.0008551001,0.08448262,-0.09889804,0.2100816,-0.02894384,0.07350041,1.05574,-1.5513380831199994,-0.1970938485500009,177.03853163575,-0.04882717,0.005796932,2.482806
2023-12-09 07:08:53.476999936,0.1325818,0.01632602,-2.689357e-05,0.06823057,-0.1045305,0.204308,-0.02913665,0.04441938,1.056063,-1.5804747331199995,-0.1526744685500009,178.09459463574998,-0.04929717,0.005771142,2.497462
2023-12-09 07:08:53.491000064,0.1327109,0.01530566,0.000728437,0.04810344,-0.1014012,0.1870535,-0.03006596,0.0168204,1.058799,-1.6105406931199997,-0.1358540685500009,179.15339363574998,-0.04976822,0.005352024,2.512423
2023-12-09 07:08:53.505000192,0.1328837,0.01455355,0.001397863,0.03643367,-0.09210858,0.1671817,-0.03173304,-0.008461824,1.063199,-1.6422737331199997,-0.1443158925500009,180.21659263575,-0.05023362,0.004639469,2.527474
2023-12-09 07:08:53.519000064,0.1326599,0.01387352,0.001877973,0.01548562,-0.07961836,0.1417335,-0.03380788,-0.03318617,1.068337,-1.6760816131199994,-0.1775020625500009,181.28492963575,-0.05073187,0.003604294,2.542569
2023-12-09 07:08:53.532000000,0.1318313,0.01354105,0.001948413,-0.02944748,-0.07204648,0.1070919,-0.03569399,-0.05619014,1.073033,-1.711775603119999,-0.2336922025500009,182.35796263575,-0.05112846,0.002220714,2.557753
2023-12-09 07:08:53.546000128,0.1305529,0.01311288,0.001965195,-0.08592424,-0.06179862,0.06821296,-0.03640628,-0.07808589,1.077393,-1.7481818831199991,-0.3117780925500009,183.43535563575,-0.05158712,0.0006130954,2.572972
2023-12-09 07:08:53.560000000,0.1291271,0.01278658,0.00185361,-0.1365665,-0.05395443,0.03900896,-0.03578733,-0.09650096,1.082143,-1.7839692131199991,-0.4082790525500009,184.51749863575,-0.05206659,-0.0009844794,2.588255
2023-12-09 07:08:53.573999872,0.128287,0.01260656,0.001775286,-0.1451962,-0.04750666,0.0200507,-0.03355864,-0.1084207,1.087874,-1.81752785312,-0.516699752550001,185.60537263575,-0.05247151,-0.002636753,2.603654
2023-12-09 07:08:53.588000000,0.1281578,0.01225505,0.001631297,-0.109564,-0.0438848,0.01055875,-0.03015813,-0.1169926,1.094511,-1.84768598312,-0.633692352550001,186.69988363575,-0.05281085,-0.004437799,2.619096
2023-12-09 07:08:53.601999872,0.1279693,0.01233588,0.001568028,-0.07511469,-0.03569815,0.002182279,-0.02575298,-0.1251344,1.100919,-1.87343896312,-0.758826752550001,187.80080263575,-0.05301636,-0.006423804,2.634549
2023-12-09 07:08:53.616000000,0.1268287,0.01222164,0.001671987,-0.08684004,-0.02399856,0.0006679611,-0.02147627,-0.134357,1.106518,-1.89491523312,-0.893183752550001,188.90732063575,-0.0532579,-0.008475984,2.650066
2023-12-09 07:08:53.630000128,0.1255899,0.0124162,0.001917536,-0.1267848,-0.004060399,0.009431327,-0.01736205,-0.1404485,1.111574,-1.91227728312,-1.033632252550001,190.01889463575,-0.05336737,-0.01053004,2.665783
2023-12-09 07:08:53.642999808,0.125122,0.01269409,0.002315222,-0.1176322,0.01755307,0.0161432,-0.01286017,-0.1424638,1.117483,-1.92513745312,-1.176096052550001,191.13637763575,-0.05342335,-0.01248836,2.681612
2023-12-09 07:08:53.657000192,0.1257353,0.01302666,0.002956407,-0.05877823,0.04014233,0.03065408,-0.007684205,-0.1406631,1.125133,-1.9328216581199995,-1.316759152550001,192.26151063575,-0.0534216,-0.01439652,2.697512
2023-12-09 07:08:53.671000064,0.1266664,0.01342399,0.0036399,0.01263496,0.06430905,0.04994832,-0.001878582,-0.135742,1.134304,-1.9347002401199995,-1.4525011525500011,193.39581463575,-0.05338259,-0.01623275,2.71352
2023-12-09 07:08:53.686000128,0.1274586,0.0139014,0.004229666,0.06344501,0.08209961,0.05628088,0.00378935,-0.1301786,1.142901,-1.93091089012,-1.5826797525500012,194.53871563575,-0.0532086,-0.01788027,2.729573
2023-12-09 07:08:53.698999808,0.1278902,0.01481014,0.004691681,0.07335858,0.09926323,0.04983069,0.01008366,-0.1245337,1.150737,-1.92082723012,-1.7072134525500011,195.68945263575,-0.05279527,-0.01932672,2.745654
2023-12-09 07:08:53.712999936,0.1276548,0.01556588,0.005045103,0.04874096,0.1121174,0.0345386,0.01640993,-0.1184388,1.157542,-1.9044173001199995,-1.8256522525500007,196.84699463575,-0.05236318,-0.02061306,2.761824
2023-12-09 07:08:53.727000064,0.1274339,0.01657051,0.005646423,0.01754502,0.1281895,0.02466026,0.02290364,-0.1110834,1.163929,-1.8815136601199995,-1.9367356525500008,198.01092363575,-0.05179975,-0.02199496,2.778231
2023-12-09 07:08:53.740999936,0.1269352,0.01758231,0.006286501,-0.01521899,0.1436106,0.02336176,0.02827354,-0.1017932,1.169305,-1.8532401201199995,-2.038528852550001,199.18022863575,-0.05121146,-0.02315143,2.794667
2023-12-09 07:08:53.755000064,0.1262681,0.01858148,0.00731832,-0.04873089,0.1624094,0.0354229,0.03272446,-0.09011732,1.172486,-1.82051566012,-2.128646172550001,200.35271463575,-0.05072916,-0.02411614,2.811034
2023-12-09 07:08:53.768999936,0.1245281,0.01965235,0.008467834,-0.109727,0.1778804,0.057097,0.03531707,-0.07352735,1.172671,-1.7851985901199994,-2.202173522550001,201.52538563575,-0.05029779,-0.02462092,2.827399
2023-12-09 07:08:53.783000064,0.121585,0.02079178,0.009513017,-0.218506,0.1929585,0.06103746,0.03608946,-0.04472949,1.173182,-1.7491091301199997,-2.246903012550001,202.69856763575,-0.04986295,-0.02401473,2.843809
2023-12-09 07:08:53.796000000,0.1201203,0.02234901,0.00999319,-0.250301,0.209569,0.034961,0.03501098,0.006380351,1.176813,-1.7140981501199994,-2.2405226615500013,203.87538063575,-0.04938232,-0.02184607,2.860348
2023-12-09 07:08:53.809999872,0.1254252,0.02474396,0.009312287,0.01866083,0.2298647,-0.02540005,0.03237767,0.0713682,1.187747,-1.6817204801199994,-2.169154461550001,205.06312763575,-0.04891961,-0.0192806,2.877091
2023-12-09 07:08:53.824000000,0.1349665,0.02730523,0.008977036,0.5134041,0.2554342,-0.06338919,0.02864846,0.1175569,1.19893,-1.653072020119999,-2.0515975615500013,206.26205763575,-0.04854421,-0.01786134,2.89369
2023-12-09 07:08:53.838000128,0.1405506,0.02894657,0.01000795,0.7270861,0.2663424,-0.02209741,0.02457855,0.1290654,1.197657,-1.6284934701199991,-1.9225321615500013,207.45971463575,-0.0482526,-0.01656964,2.909883
2023-12-09 07:08:53.852000000,0.1431452,0.02969255,0.01224683,0.6624861,0.2585169,0.07490945,0.02022128,0.1197152,1.187388,-1.6082721901199994,-1.8028169615500007,208.64710263575,-0.04811493,-0.01546427,2.926029
2023-12-09 07:08:53.865999872,0.1431667,0.02995051,0.01540466,0.4471482,0.2400568,0.1989429,0.01404396,0.09773791,1.173374,-1.5942282301199997,-1.7050790515500014,209.82047663575,-0.04812128,-0.01469046,2.942072
2023-12-09 07:08:53.880000000,0.1399875,0.02957341,0.01938721,0.1184422,0.2194644,0.3166021,0.004761387,0.07711144,1.156492,-1.5894668431199994,-1.6279676115500017,210.97696863575,-0.04836582,-0.01376082,2.957751
2023-12-09 07:08:53.894000128,0.134961,0.02936832,0.02238047,-0.2172387,0.202727,0.3522151,-0.006313266,0.0669608,1.138525,-1.5957801091199997,-1.5610068115500015,212.11549363575,-0.04854444,-0.0123909,2.973045
2023-12-09 07:08:53.907000064,0.1318246,0.02960383,0.02341832,-0.3828348,0.173574,0.2788543,-0.01886269,0.07274264,1.122957,-1.6146427991199994,-1.4882641715500016,213.23845063575,-0.0488858,-0.01073677,2.988157
2023-12-09 07:08:53.921999872,0.130948,0.03022513,0.02351143,-0.3372919,0.1448426,0.1669775,-0.03104637,0.09034719,1.112293,-1.6456891691199995,-1.3979169815500017,214.35074363575,-0.04952147,-0.00892704,3.003456
2023-12-09 07:08:53.936000000,0.1311904,0.03110433,0.02255929,-0.2092782,0.1125928,0.04217125,-0.04272436,0.1108588,1.104603,-1.6884135291199995,-1.2870581815500015,215.45534663575,-0.05032137,-0.007196612,3.018694
2023-12-09 07:08:53.948999936,0.1297956,0.03202456,0.0209403,-0.1604105,0.0843693,-0.07967395,-0.05228962,0.1300921,1.096967,-1.7407031491199996,-1.1569660815500018,216.55231363575,-0.05119521,-0.005100164,3.033745
2023-12-09 07:08:53.963000064,0.1285946,0.03276432,0.01951565,-0.1503829,0.06381049,-0.1566746,-0.05959088,0.1494811,1.089015,-1.8002940291199996,-1.0074849815500018,217.64132863575,-0.05215104,-0.002753824,3.048563
2023-12-09 07:08:53.976999936,0.1285575,0.03327202,0.01864849,-0.09931425,0.04770325,-0.1721195,-0.064775,0.1656431,1.081571,-1.86506902912,-0.8418418815500017,218.72289963575,-0.05310176,-0.0005098426,3.063273
2023-12-09 07:08:53.991000064,0.1287921,0.03370775,0.01792556,-0.04673791,0.03302053,-0.1601379,-0.06726393,0.173283,1.074461,-1.93233295912,-0.6685588815500018,219.79736063575,-0.05394259,0.001792093,3.078237
2023-12-09 07:08:54.005000192,0.1290167,0.03382591,0.01761595,-0.005229928,0.02123873,-0.1237774,-0.06852574,0.172438,1.06758,-2.00085869912,-0.4961208815500018,220.86494063575,-0.05484078,0.004069445,3.093197
2023-12-09 07:08:54.019000064,0.1301144,0.03392655,0.01764034,0.044006,0.01119092,-0.07351959,-0.0696535,0.1667696,1.062351,-2.0705121991199995,-0.3293512815500018,221.92729163575,-0.05580405,0.006120361,3.108063
2023-12-09 07:08:54.032999936,0.1320554,0.03384933,0.01760147,0.1253231,0.003905789,-0.02896504,-0.07127488,0.1569401,1.058888,-2.14178707912,-0.1724111815500018,222.98617963575,-0.05698868,0.007803934,3.122855
2023-12-09 07:08:54.046999808,0.1343828,0.03417061,0.01718331,0.2055321,0.0008825779,-0.01902927,-0.07334249,0.1440268,1.057557,-2.21512956912,-0.0283843815500018,224.04373663575,-0.05815348,0.009170877,3.137669
2023-12-09 07:08:54.060000000,0.1366644,0.03446746,0.01634324,0.2699832,-0.003408268,-0.04066551,-0.07598742,0.1246051,1.057306,-2.2911169891199994,0.0962207184499981,225.10104263575,-0.05932631,0.01015564,3.152549
2023-12-09 07:08:54.073999872,0.138559,0.03513671,0.01532839,0.2902905,0.002436063,-0.07369704,-0.07838087,0.1002069,1.058142,-2.3694978591199995,0.1964276184499981,226.15918463575,-0.06047697,0.01067407,3.167439
2023-12-09 07:08:54.088999936,0.1401477,0.03565801,0.01434456,0.2813607,0.003447604,-0.09921548,-0.08131185,0.070932,1.059264,-2.45080970912,0.2673596184499981,227.21844863575,-0.06167004,0.01087321,3.182239
2023-12-09 07:08:54.101999872,0.1411577,0.03615421,0.01353819,0.2443426,0.007324663,-0.1163815,-0.08424959,0.04007973,1.060642,-2.53505929912,0.3074393484499981,228.27909063575,-0.06291059,0.0107575,3.197042
2023-12-09 07:08:54.116000000,0.141862,0.03678533,0.01263028,0.2027837,0.01658611,-0.1244337,-0.08760747,0.008025009,1.062819,-2.62266676912,0.3154643574499981,229.34190963575,-0.06422631,0.01028269,3.211883
2023-12-09 07:08:54.130000128,0.1427877,0.03741856,0.01221257,0.1725102,0.0275128,-0.1147844,-0.09190901,-0.02031629,1.065589,-2.71457577912,0.2951480674499981,230.40749863575,-0.06565142,0.009230952,3.226725
2023-12-09 07:08:54.142999808,0.14375,0.03823661,0.01193512,0.1599795,0.04331108,-0.09469721,-0.09698738,-0.04641484,1.069784,-2.81156315912,0.2487332274499981,231.47728263575,-0.06713624,0.007907338,3.24167
2023-12-09 07:08:54.157000192,0.144809,0.03892829,0.01143603,0.1589196,0.05919144,-0.08747841,-0.1026084,-0.06969098,1.074853,-2.91417155912,0.179042247449998,232.55213563575,-0.06882341,0.006348491,3.256843
2023-12-09 07:08:54.171000064,0.1455962,0.03980438,0.0111729,0.1501561,0.07458051,-0.07908012,-0.1088746,-0.09044573,1.081424,-3.02304615912,0.088596517449998,233.63355963575,-0.07052464,0.00466459,3.272167
2023-12-09 07:08:54.184999936,0.1465369,0.0404502,0.01118587,0.1439193,0.07865296,-0.06665551,-0.1148987,-0.1056412,1.088252,-3.13794485912,-0.0170446825500019,234.72181163575,-0.07224587,0.002990224,3.287441
2023-12-09 07:08:54.198999808,0.1475742,0.04085933,0.01090185,0.1486687,0.06667655,-0.05632244,-0.1209364,-0.1162241,1.095778,-3.25888125912,-0.1332687825500019,235.81758963575,-0.07404213,0.001338262,3.302765
2023-12-09 07:08:54.212999936,0.1490873,0.0413416,0.01014527,0.1739879,0.05033903,-0.0658804,-0.1275082,-0.1228261,1.104375,-3.38638945912,-0.2560948825500019,236.92196463575,-0.07595038,-0.0003863517,3.318238
2023-12-09 07:08:54.227000064,0.1506049,0.04183855,0.009337967,0.2003943,0.03580691,-0.0810661,-0.1348464,-0.1261714,1.113162,-3.5212358591199995,-0.3822662825500019,238.03512663575,-0.07809129,-0.002247008,3.33403
2023-12-09 07:08:54.240999936,0.1519523,0.0421711,0.008572383,0.2085617,0.02175361,-0.08377336,-0.1431888,-0.1278142,1.121934,-3.66442465912,-0.5100804825500018,239.15706063575,-0.08033568,-0.004083017,3.349964
2023-12-09 07:08:54.255000064,0.1530227,0.04215388,0.008191818,0.1989002,0.006788847,-0.07034386,-0.1513808,-0.1269028,1.130953,-3.81580545912,-0.6369832825500018,240.28801363575,-0.08271677,-0.005847816,3.365995
2023-12-09 07:08:54.268999936,0.1538585,0.04199908,0.007936004,0.1742003,-0.01359427,-0.05009483,-0.1583772,-0.1220399,1.139376,-3.97418265912,-0.7590231825500018,241.42738963575,-0.0850797,-0.007448357,3.382089
2023-12-09 07:08:54.283000064,0.1549286,0.04125694,0.007547457,0.1620824,-0.04758081,-0.02621185,-0.1642612,-0.1138245,1.146927,-4.13844385912,-0.8728476825500018,242.57431663575,-0.08754271,-0.008871753,3.398279
2023-12-09 07:08:54.296999936,0.1559377,0.0404912,0.00681411,0.1572109,-0.08368754,-0.01814174,-0.1690166,-0.1043952,1.153838,-4.30746045912,-0.9772428825500018,243.72815463575,-0.08998224,-0.01002316,3.414658
2023-12-09 07:08:54.309999872,0.156685,0.03962145,0.00603232,0.1410427,-0.1156416,-0.01975378,-0.1743755,-0.09265862,1.160569,-4.48183595912,-1.0699015025500018,244.88872363575,-0.09254036,-0.01087798,3.431102
2023-12-09 07:08:54.324999936,0.1577969,0.03887067,0.005243428,0.1425721,-0.1317696,-0.02598313,-0.1804522,-0.07679017,1.167437,-4.66228815912,-1.1466916725500018,246.05616063575,-0.09523141,-0.01164528,3.447685
2023-12-09 07:08:54.338000128,0.1593575,0.03833307,0.004466996,0.173147,-0.1316197,-0.02748467,-0.1858822,-0.06293073,1.172076,-4.84817035912,-1.2096224025500018,247.22823663575,-0.09794066,-0.01251331,3.464192
2023-12-09 07:08:54.352000000,0.1595601,0.03767232,0.003467469,0.1446941,-0.1324575,-0.04450585,-0.1893526,-0.0562708,1.171308,-5.03752295912,-1.2658932025500018,248.39954463575003,-0.1006673,-0.01352077,3.480425
2023-12-09 07:08:54.365999872,0.1546906,0.0370179,0.002219276,-0.089246,-0.1505844,-0.09479098,-0.1890992,-0.04778004,1.164706,-5.226622159120001,-1.3136732425500015,249.56425063575003,-0.1032863,-0.01367516,3.496717
2023-12-09 07:08:54.380000000,0.1496775,0.0355913,0.001581691,-0.3537032,-0.1783559,-0.1059746,-0.1866394,-0.01039677,1.160509,-5.41326155912,-1.3240700125500018,250.72475963575,-0.1059168,-0.01178316,3.513081
2023-12-09 07:08:54.394000128,0.1564393,0.03393897,0.002040365,-0.07366639,-0.1868429,0.00635016,-0.1827821,0.04428222,1.161242,-5.59604365912,-1.279787792550002,251.88600163575,-0.1083035,-0.01002678,3.529632
2023-12-09 07:08:54.408000000,0.166354,0.03203798,0.002760606,0.4838884,-0.1748379,0.1476174,-0.1774518,0.07659417,1.17196,-5.77349545912,-1.203193622550002,253.05796163575,-0.1106415,-0.009348019,3.546211
2023-12-09 07:08:54.421999872,0.1708114,0.03076497,0.002329308,0.6671997,-0.1694592,0.1695509,-0.1707565,0.08125155,1.173352,-5.944251959120001,-1.121942072550002,254.23131363575,-0.1128775,-0.008653174,3.562409
2023-12-09 07:08:54.436000000,0.1737215,0.02992576,0.0007900067,0.6321152,-0.1779068,0.08828402,-0.1636422,0.07268412,1.173579,-6.107894159120001,-1.049257952550002,255.40489263575,-0.1150411,-0.008135578,3.578924
2023-12-09 07:08:54.450000128,0.1742867,0.02979776,-0.002598797,0.4822726,-0.2014288,-0.07644869,-0.1554724,0.06901968,1.176684,-6.2633665591200005,-0.980238272550002,256.58157663575,-0.116998,-0.007113095,3.595411
2023-12-09 07:08:54.464000000,0.1728949,0.02978549,-0.006908467,0.2561453,-0.2326714,-0.2591267,-0.1447954,0.08710115,1.179307,-6.40816195912,-0.8931371225500021,257.76088363575,-0.1186367,-0.004918085,3.611778
2023-12-09 07:08:54.477999872,0.1739074,0.02970166,-0.01014957,0.172787,-0.24642,-0.3441697,-0.1345452,0.1170536,1.182796,-6.54270715912,-0.7760835225500021,258.94367963575,-0.120143,-0.002776331,3.628251
2023-12-09 07:08:54.492000000,0.1727497,0.02936795,-0.01176917,0.07515599,-0.2237712,-0.3148525,-0.1245198,0.140544,1.185769,-6.66722695912,-0.6355395225500021,260.12944863575,-0.1215572,-0.0008116624,3.64458
2023-12-09 07:08:54.505000192,0.1695036,0.02897646,-0.01256685,-0.107892,-0.1857893,-0.2492685,-0.1137845,0.1481728,1.182406,-6.78101145912,-0.4873667225500021,261.31185463575,-0.1227811,0.0009366511,3.660749
2023-12-09 07:08:54.519000064,0.1652621,0.02846996,-0.01256386,-0.3033445,-0.1440433,-0.1584037,-0.1026089,0.1440152,1.177302,-6.88362035912,-0.3433515225500021,262.48915663575,-0.1238624,0.002573095,3.676943
2023-12-09 07:08:54.532999936,0.1604868,0.02778324,-0.01159826,-0.4738464,-0.1128484,-0.06005898,-0.09214289,0.1408068,1.171763,-6.97576324912,-0.2025447225500021,263.66091963575,-0.1248351,0.004629361,3.69316
2023-12-09 07:08:54.546999808,0.1582477,0.02715538,-0.01102235,-0.4791491,-0.08594263,0.01024178,-0.08141092,0.143351,1.167598,-7.05717416912,-0.0591937225500021,264.82851763575,-0.1257024,0.006734224,3.70947
2023-12-09 07:08:54.562000128,0.1581169,0.02658271,-0.01036064,-0.3426436,-0.06513019,0.05910295,-0.07264778,0.1460307,1.165852,-7.129821949119999,0.0868369774499979,265.99436963575,-0.1265408,0.008814832,3.725725
2023-12-09 07:08:54.573999872,0.1584139,0.0258207,-0.009031244,-0.1917837,-0.04378496,0.1156557,-0.06549671,0.1406142,1.164089,-7.195318659119999,0.2274511774499979,267.15845863575,-0.1272977,0.01056919,3.741897
2023-12-09 07:08:54.588000000,0.1587982,0.02484822,-0.007699575,-0.08914806,-0.03724345,0.1629849,-0.0593854,0.1259641,1.160681,-7.254704059119999,0.3534152774499979,268.31913963575,-0.1279657,0.01173914,3.757871
2023-12-09 07:08:54.601999872,0.1593311,0.02366176,-0.006972836,-0.0208851,-0.05346263,0.18168,-0.05423485,0.1030587,1.156326,-7.308938909119999,0.4564739774499979,269.47546563575,-0.128608,0.01236263,3.773804
2023-12-09 07:08:54.616000000,0.1593716,0.02250225,-0.006512955,0.006425662,-0.07483524,0.1671408,-0.0500872,0.07693081,1.152618,-7.359026109119999,0.5334047874499979,270.62808363575,-0.1292304,0.0127142,3.789756
2023-12-09 07:08:54.630000128,0.1593189,0.02122384,-0.006080621,0.006692364,-0.09546746,0.1542017,-0.04676929,0.04887804,1.148992,-7.40579539912,0.5822828274499978,271.77707563575,-0.1298916,0.01267005,3.805816
2023-12-09 07:08:54.644000000,0.1593294,0.0200226,-0.005800959,8.469122e-05,-0.1151185,0.1449312,-0.04397983,0.01929948,1.145734,-7.449775229119999,0.6015823074499979,272.92280963575,-0.1304564,0.01213147,3.821844
2023-12-09 07:08:54.657999872,0.1588023,0.01855048,-0.00543129,-0.01880866,-0.1326862,0.1405178,-0.04190134,-0.01108708,1.143332,-7.491676569119999,0.5904952274499978,274.06614163575,-0.1310346,0.01123116,3.837859
2023-12-09 07:08:54.672000000,0.1580783,0.01734459,-0.005137239,-0.05076221,-0.1352978,0.12744,-0.0409429,-0.04011169,1.142734,-7.532619469119999,0.5503835374499978,275.20887563575,-0.1316491,0.01001198,3.853902
2023-12-09 07:08:54.686000128,0.1576477,0.01682772,-0.004963126,-0.06709965,-0.1191072,0.1047036,-0.04165309,-0.06553238,1.14422,-7.574272559119999,0.4848511574499978,276.35309563575004,-0.1322289,0.008695611,3.869956
2023-12-09 07:08:54.698999808,0.1575997,0.01654776,-0.005131805,-0.05224559,-0.09203261,0.0711303,-0.04296234,-0.08478775,1.147182,-7.617234899119999,0.4000634074499978,277.50027763575,-0.1328638,0.007264239,3.886039
2023-12-09 07:08:54.714999808,0.157879,0.01648869,-0.005127675,-0.01656516,-0.05938218,0.03960678,-0.0436994,-0.102468,1.151013,-7.660934299119999,0.2975954074499978,278.65129063575,-0.1334483,0.005592926,3.902138
2023-12-09 07:08:54.728000000,0.1578424,0.01653044,-0.005216099,-0.003730961,-0.03255861,0.02036577,-0.04236113,-0.1183225,1.154177,-7.703295429119999,0.1792729074499978,279.80546763575,-0.1339187,0.003671451,3.918364
2023-12-09 07:08:54.740999936,0.1574591,0.01658639,-0.004979052,-0.01796273,-0.01193844,0.01225054,-0.03920148,-0.1336274,1.156331,-7.742496909119999,0.0456455074499977,280.96179863575003,-0.134319,0.001541308,3.93458
2023-12-09 07:08:54.755000064,0.1566061,0.01664441,-0.004778122,-0.05060143,0.003236917,0.01343525,-0.03557085,-0.1458274,1.159196,-7.778067759119999,-0.1001818925500022,282.12099463575004,-0.1347535,-0.0005315547,3.950834
2023-12-09 07:08:54.769999872,0.1562079,0.01704496,-0.004490552,-0.06302184,0.02270504,0.01251115,-0.03152894,-0.1523219,1.16322,-7.809596699119999,-0.2525037925500022,283.28421463575006,-0.1350913,-0.002539721,3.967124
2023-12-09 07:08:54.784000000,0.1563959,0.01761919,-0.00448583,-0.04268819,0.0422711,-0.00179964,-0.02715989,-0.1528302,1.167897,-7.836756589119999,-0.4053339925500022,284.45211163575004,-0.1353685,-0.00456839,3.983447
2023-12-09 07:08:54.796999936,0.1568108,0.01840819,-0.004409502,-0.004573457,0.0674891,-0.01308814,-0.0216991,-0.151737,1.173168,-7.858455689119999,-0.5570709925500023,285.62527963575,-0.1355192,-0.006588743,3.999836
2023-12-09 07:08:54.811000064,0.1568737,0.01911489,-0.003891905,0.007203144,0.09004308,-0.008671356,-0.01613898,-0.1498727,1.178268,-7.874594669119999,-0.7069436925500022,286.80354763575,-0.1355985,-0.008499806,4.016263
2023-12-09 07:08:54.824999936,0.1570147,0.01991252,-0.003260959,0.01343319,0.1115142,9.164288e-05,-0.009193601,-0.1447109,1.183849,-7.883788270119999,-0.8516545925500022,287.98739663575003,-0.1356056,-0.0102164,4.032875
2023-12-09 07:08:54.839000064,0.1575954,0.02082028,-0.002670289,0.03312493,0.1295459,0.01527079,-0.001575625,-0.1355848,1.189541,-7.885363895119999,-0.9872393925500024,289.17693763575005,-0.1354733,-0.01174233,4.049573
2023-12-09 07:08:54.852999936,0.1583803,0.02163568,-0.001720241,0.06038504,0.1457356,0.0316177,0.0071244,-0.1231465,1.195625,-7.878239495119999,-1.1103858925500023,290.37256263575006,-0.1352158,-0.01314205,4.066257
2023-12-09 07:08:54.865999872,0.1587077,0.02257815,-0.0006604572,0.0659342,0.1616524,0.05206693,0.01460622,-0.110834,1.200126,-7.863633275119999,-1.2212198925500024,291.57268863575007,-0.1348614,-0.01438049,4.082929
2023-12-09 07:08:54.880000000,0.1588173,0.02362827,0.000570192,0.04302223,0.1822713,0.06631224,0.02154496,-0.09843924,1.20291,-7.842088315119999,-1.3196591325500024,292.77559863575004,-0.1344118,-0.01546627,4.09957
2023-12-09 07:08:54.894000128,0.1589626,0.0247364,0.001845451,0.02726597,0.1997572,0.07303897,0.02843389,-0.08807316,1.203354,-7.813654425119999,-1.4077322925500024,293.97895263575003,-0.133862,-0.01644786,4.11612
2023-12-09 07:08:54.908000000,0.1585991,0.02561709,0.003554514,0.00173121,0.2082766,0.09837252,0.03472044,-0.08012961,1.199888,-7.778933985119999,-1.4878619025500024,295.17884063575,-0.1332565,-0.01727886,4.132526
2023-12-09 07:08:54.921999872,0.1590269,0.02616525,0.005295018,0.006123146,0.2093432,0.1351617,0.03902081,-0.07547128,1.192891,-7.739913175119999,-1.5633331825500023,296.37173163575,-0.1326802,-0.0182128,4.148772
2023-12-09 07:08:54.936000000,0.1582964,0.02714238,0.007074798,-0.01900418,0.2144815,0.1526176,0.03904595,-0.06655197,1.18567,-7.700867225119999,-1.6298851525500022,297.55740163575,-0.1321862,-0.01860815,4.165067
2023-12-09 07:08:54.950000128,0.1554178,0.02871447,0.008169619,-0.1509436,0.2337798,0.1132277,0.03382663,-0.02672868,1.183383,-7.667040595119999,-1.6566138325500022,298.74078463575,-0.1319307,-0.01682797,4.181412
2023-12-09 07:08:54.964000000,0.1643296,0.03188341,0.007327185,0.2102314,0.2729753,0.000575259,0.02654267,0.03054869,1.185978,-7.640497925119998,-1.626065142550002,299.92676263575,-0.1317568,-0.01549886,4.198025
2023-12-09 07:08:54.977999872,0.1766391,0.03528434,0.007042046,0.8157282,0.3265863,-0.06513376,0.01889483,0.0576306,1.199178,-7.6216030951199985,-1.568434542550002,301.12594063575,-0.131654,-0.01552923,4.214686
2023-12-09 07:08:54.992000000,0.1830332,0.03772446,0.007836892,1.011151,0.3552813,-0.04588509,0.01275727,0.0548346,1.19941,-7.608845825119999,-1.5135999425500022,302.32535063575,-0.1314974,-0.01529165,4.230645
2023-12-09 07:08:55.006000128,0.1865375,0.03935575,0.009885276,0.8959525,0.3553002,0.02722157,0.008817885,0.03368367,1.196867,-7.600027940119999,-1.479916272550002,303.52221763575,-0.1313473,-0.01530844,4.246974
2023-12-09 07:08:55.020000000,0.1862456,0.04006699,0.01227351,0.5827814,0.3323085,0.1108971,0.005169293,0.01360277,1.195865,-7.594858647119999,-1.466313502550002,304.71808263575,-0.1314251,-0.01514016,4.263545
2023-12-09 07:08:55.033999872,0.1813504,0.04049601,0.01514582,0.1138686,0.2977811,0.1737283,0.0004463475,0.01285762,1.192296,-7.594412299619999,-1.453455882550002,305.91037863575,-0.1315936,-0.01395088,4.280255
2023-12-09 07:08:55.046999808,0.1769433,0.04071965,0.01740934,-0.2528978,0.2657193,0.1885383,-0.00602546,0.03543407,1.186514,-7.600437759619999,-1.418021812550002,307.09689263575,-0.1319789,-0.01235405,4.296902
2023-12-09 07:08:55.061000192,0.1735269,0.0408833,0.01945948,-0.4134364,0.2300299,0.1844454,-0.01503178,0.06599619,1.184459,-7.615469539619999,-1.3520256225500022,308.28135163575,-0.1324002,-0.01071001,4.3133
2023-12-09 07:08:55.075000064,0.1688268,0.04095799,0.02058023,-0.5194965,0.1849798,0.1420908,-0.02394629,0.09062196,1.182414,-7.639415829619999,-1.2614036625500022,309.46376563575,-0.1328968,-0.009148388,4.329649
2023-12-09 07:08:55.088999936,0.1626824,0.04119455,0.02009404,-0.6547307,0.1264902,0.04548901,-0.03077304,0.1120045,1.180145,-7.670188869619999,-1.1493991625500022,310.64391063575,-0.1334337,-0.00689905,4.34603
2023-12-09 07:08:55.102999808,0.1591656,0.04148041,0.01898938,-0.6493676,0.06024356,-0.07083852,-0.03620042,0.1401213,1.180595,-7.706389289619999,-1.009277862550002,311.82450563575,-0.1340224,-0.004053812,4.362591
2023-12-09 07:08:55.117000192,0.1595834,0.04174328,0.01759362,-0.4298032,0.00786732,-0.1312091,-0.04015408,0.1734188,1.183668,-7.746543369619999,-0.8358590625500021,313.00817363575,-0.1346512,-0.001095771,4.379178
2023-12-09 07:08:55.130000128,0.1605768,0.04168897,0.0170292,-0.1942426,-0.02196099,-0.1213797,-0.04233602,0.1938427,1.186801,-7.788879389619998,-0.642016362550002,314.19497463575,-0.1353417,0.001586198,4.39581
2023-12-09 07:08:55.144000000,0.1603977,0.04121096,0.01686749,-0.08436313,-0.04006236,-0.07925947,-0.04306678,0.196436,1.185678,-7.831946169619998,-0.445580362550002,315.38065263575,-0.136021,0.004052951,4.412261
2023-12-09 07:08:55.157999872,0.1602129,0.04049277,0.01723256,-0.05341099,-0.05487871,-0.01815501,-0.04287872,0.1840616,1.182058,-7.874824889619998,-0.261518762550002,316.56271063575,-0.136834,0.006177463,4.42892
2023-12-09 07:08:55.172000000,0.160149,0.03955533,0.01816303,-0.04412986,-0.06419261,0.05667189,-0.04340454,0.1620101,1.177356,-7.918229429619998,-0.099508662550002,317.74006663574994,-0.137658,0.007871958,4.445476
2023-12-09 07:08:55.187000064,0.1597544,0.03852749,0.01878882,-0.0502412,-0.06692462,0.09838251,-0.04470742,0.1341116,1.171855,-7.962936849619998,0.0346029374499979,318.91192163574993,-0.1384141,0.009178104,4.461714
2023-12-09 07:08:55.200000000,0.1595215,0.03800054,0.01863981,-0.04800615,-0.07207408,0.08561026,-0.04682616,0.1004392,1.166277,-8.009763009619999,0.1350421374499979,320.0781986357499,-0.1389962,0.009933716,4.477751
2023-12-09 07:08:55.213999872,0.1592862,0.0377623,0.01782783,-0.03729111,-0.07980221,0.02861555,-0.04938111,0.0658852,1.162079,-8.059144119619999,0.2009273374499979,321.2402776357499,-0.1396262,0.01018136,4.493762
2023-12-09 07:08:55.228000000,0.1591879,0.03755669,0.01672334,-0.02741647,-0.08568136,-0.0301537,-0.05187278,0.03183261,1.159965,-8.11101689962,0.2327599474499979,322.4002426357499,-0.140379,0.009938176,4.509902
2023-12-09 07:08:55.242000128,0.1597071,0.03720647,0.0155359,0.007987276,-0.09936569,-0.07556465,-0.05371532,0.0003074948,1.159732,-8.16473221962,0.2330674422499979,323.55997463574994,-0.1411429,0.00930922,4.526099
2023-12-09 07:08:55.256000000,0.1604173,0.03670123,0.01459953,0.05138124,-0.1127506,-0.08486716,-0.05557846,-0.02960623,1.161593,-8.220310679619999,0.2034612122499979,324.7215676357499,-0.141961,0.008285117,4.542408
2023-12-09 07:08:55.269999872,0.1610256,0.03610496,0.01369696,0.07270376,-0.1205198,-0.07686607,-0.05855842,-0.05640139,1.164152,-8.27886909962,0.1470598222499979,325.8857196357499,-0.1428935,0.006856061,4.558782
2023-12-09 07:08:55.283000064,0.1608759,0.03580223,0.01300257,0.05965328,-0.1112386,-0.0750958,-0.06291406,-0.08201692,1.167489,-8.34178315962,0.0650429022499979,327.0532086357499,-0.1439103,0.005202798,4.575201
2023-12-09 07:08:55.296999936,0.160627,0.03573083,0.01228045,0.0251725,-0.09306664,-0.08036175,-0.06866467,-0.1041821,1.170946,-8.41044782962,-0.039139197750002,328.2241546357499,-0.14505,0.003395573,4.591619
2023-12-09 07:08:55.311000064,0.1606138,0.03586422,0.01169701,0.01248561,-0.0657599,-0.08056434,-0.07472906,-0.123405,1.175344,-8.48517688962,-0.162544197750002,329.3994986357499,-0.1462522,0.00137763,4.608096
2023-12-09 07:08:55.324999936,0.1605029,0.03600233,0.01137514,0.003166728,-0.03926554,-0.07550631,-0.08114249,-0.1395027,1.180895,-8.56631937962,-0.302046897750002,330.58039363574994,-0.1474471,-0.0008426002,4.62459
2023-12-09 07:08:55.339000064,0.1600546,0.03616101,0.01114281,-0.01689588,-0.02574552,-0.06354368,-0.08816889,-0.1505181,1.186149,-8.65448826962,-0.452564997750002,331.76654263574994,-0.1487374,-0.003086254,4.641182
2023-12-09 07:08:55.352999936,0.1594598,0.03635596,0.01091271,-0.04197136,-0.009550777,-0.05427705,-0.09592582,-0.1562421,1.19212,-8.75041408962,-0.608807097750002,332.95866263575,-0.1502302,-0.005224488,4.657847
2023-12-09 07:08:55.367000064,0.1594267,0.03670067,0.01047224,-0.03605529,0.001299065,-0.05786106,-0.1045905,-0.1561138,1.198314,-8.85500458962,-0.7649208977500019,334.1569766357499,-0.1519249,-0.007273093,4.674655
2023-12-09 07:08:55.380999936,0.1597841,0.03732484,0.009885204,-0.001108037,0.01344538,-0.07543249,-0.1142576,-0.1517061,1.205747,-8.96926218962,-0.916626997750002,335.3627236357499,-0.1537473,-0.009236869,4.691616
